Accelerometer x,Accelerometer y,Accelerometer z
32.000000, 32.000000, 32.000000
-30,-3,56
-31,-3,56
-31,-2,56
-30,-3,56
-31,-3,56
-31,-3,56
-31,-3,56
-30,-3,57
-31,-3,56
-31,-3,56
-31,-3,56
-31,-3,56
-31,-2,56
-30,-2,56
-31,-3,55
-30,-4,57
-29,-4,56
-31,-3,55
-31,-3,56
-30,-3,57
-30,-3,56
-31,-3,55
-29,-3,56
-31,-3,56
-31,-4,56
-30,-3,56
-30,-3,56
-32,-3,55
-31,-3,56
-30,-4,56
-31,-4,55
-30,-3,56
-31,-3,56
-31,-3,56
-31,-3,56
-31,-3,56
-31,-3,56
-31,-4,56
-30,-3,56
-31,-3,56
-31,-4,56
-30,-3,56
-30,-3,56
-31,-3,56
-31,-3,56
-30,-4,56
-31,-3,56
-30,-3,56
-31,-3,55
-31,-3,56
-30,-3,56
-31,-3,55
-30,-3,56
-30,-4,56
-30,-4,56
-30,-5,57
-30,-5,56
-29,-4,56
-30,-4,56
-30,-4,56
-30,-4,56
-30,-4,56
-30,-4,56
-30,-4,56
-30,-4,56
-30,-4,57
-30,-4,56
-30,-4,56
-29,-4,57
-30,-4,56
-30,-4,56
-30,-4,56
-30,-4,57
-30,-4,56
-30,-4,57
-30,-4,56
-30,-4,57
-30,-4,57
-30,-4,56
-29,-4,56
-29,-4,56
-30,-4,56
-29,-4,57
-29,-4,57
-30,-4,57
-30,-4,56
-29,-4,56
-29,-4,57
-30,-4,56
-30,-4,57
-30,-4,57
-29,-4,57
-30,-4,56
-29,-4,57
-29,-4,57
-30,-4,57
-29,-4,57
-29,-4,56
-29,-4,57
-29,-4,57
-30,-4,56
-29,-4,57
-29,-4,57
-30,-4,56
-30,-4,56
-29,-4,57
-29,-4,57
-30,-4,57
-29,-4,56
-29,-4,56
-29,-4,56
-29,-4,57
-30,-4,56
-30,-4,56
-29,-4,56
-29,-4,56
-29,-4,56
-30,-4,57
-29,-4,57
-30,-4,56
-30,-4,56
-29,-4,57
-30,-4,56
-30,-4,56
-30,-4,56
-29,-4,57
-30,-4,56
-30,-4,56
-30,-4,57
-30,-4,56
-29,-4,56
-30,-4,56
-30,-4,56
-29,-4,56
-29,-4,56
-30,-4,56
-30,-4,56
-29,-4,57
-30,-4,56
-30,-4,56
-29,-4,57
-29,-4,57
-30,-4,56
-30,-4,56
-29,-4,56
-30,-4,56
-30,-4,56
-30,-4,57
-30,-4,57
-30,-4,56
-30,-4,57
-30,-4,56
-30,-4,57
-30,-4,56
-29,-4,56
-29,-4,57
-30,-4,57
-29,-4,57
-30,-4,57
-31,-2,58
-30,-3,59
-28,-3,58
-29,-3,58
-32,-2,58
-28,-3,59
-24,-3,59
-31,-3,57
-37,-2,56
-26,-3,56
-27,-5,54
-24,-5,53
-22,-8,57
-15,-9,60
-15,-11,55
-16,-11,54
-28,-11,51
-28,-15,49
-30,-16,46
-44,-12,45
-62,-7,48
-50,0,65
-43,0,63
-29,-1,55
-29,-1,52
-29,-2,54
-34,-2,57
-36,-4,55
-37,-5,52
-36,-4,52
-36,-3,52
-36,-3,53
-36,-4,53
-36,-4,52
-36,-4,52
-36,-4,53
-37,-4,52
-36,-4,52
-36,-4,52
-36,-4,52
-36,-4,53
-36,-4,52
-37,-4,52
-36,-4,52
-36,-4,52
-35,-4,52
-36,-4,53
-36,-5,52
-36,-4,52
-36,-5,53
-37,-4,51
-37,-4,50
-37,-4,51
-37,-4,52
-38,-5,52
-37,-5,52
-37,-4,52
-36,-4,52
-37,-4,52
-37,-5,51
-37,-5,51
-37,-5,52
-37,-5,52
-38,-5,52
-38,-4,52
-37,-4,52
-36,-5,52
-37,-5,52
-38,-5,51
-37,-5,51
-38,-4,51
-37,-4,51
-37,-5,52
-38,-5,51
-38,-5,52
-37,-5,51
-37,-5,51
-37,-5,52
-38,-5,51
-38,-5,51
-37,-4,52
-37,-4,52
-38,-5,51
-37,-5,51
-37,-5,51
-38,-4,52
-38,-5,51
-37,-5,51
-38,-5,52
-37,-5,51
-37,-5,51
-37,-5,51
-38,-5,51
-37,-5,51
-37,-5,51
-38,-5,51
-38,-4,51
-37,-5,52
-38,-5,51
-38,-4,52
-38,-5,51
-38,-5,51
-38,-4,51
-38,-5,51
-37,-5,51
-38,-5,52
-38,-5,51
-38,-5,51
-38,-5,51
-37,-5,52
-38,-5,51
-38,-4,51
-37,-4,51
-37,-5,52
-37,-5,51
-37,-4,51
-38,-5,51
-38,-5,52
-37,-5,52
-37,-5,51
-38,-5,51
-38,-5,51
-37,-5,52
-38,-5,51
-37,-5,51
-38,-5,51
-38,-5,51
-38,-5,51
-37,-5,51
-38,-5,51
-37,-5,51
-37,-4,51
-38,-5,51
-38,-5,51
-37,-5,51
-37,-5,52
-37,-5,51
-38,-5,51
-38,-5,51
-37,-5,52
-37,-5,52
-38,-5,51
-38,-5,51
-37,-5,51
-38,-5,51
-38,-5,51
-37,-5,51
-38,-5,52
-38,-5,51
-37,-5,51
-37,-5,51
-38,-5,51
-37,-5,51
-38,-5,51
-38,-5,52
-37,-5,51
-38,-5,52
-38,-5,52
-37,-5,51
-37,-5,51
-38,-5,51
-37,-5,51
-38,-5,51
-37,-5,51
-37,-5,51
-37,-5,51
-38,-5,51
-38,-5,51
-37,-5,51
-37,-5,51
-38,-5,51
-38,-5,51
-38,-5,52
-38,-5,51
-37,-5,51
-38,-5,51
-38,-5,51
-37,-5,51
-37,-5,51
-37,-5,51
-37,-5,51
-38,-5,51
-38,-5,51
-38,-5,51
-38,-5,51
-38,-5,51
-38,-5,51
-37,-5,52
-38,-5,51
-37,-5,51
-37,-5,51
-38,-5,51
-38,-5,52
-37,-5,51
-37,-5,52
-38,-5,51
-38,-5,51
-37,-5,51
-37,-5,51
-37,-5,51
-38,-5,51
-37,-5,51
-38,-5,51
-37,-5,51
-38,-5,51
-37,-5,51
-38,-5,51
-38,-5,51
-37,-5,51
-37,-5,52
-38,-5,51
-38,-5,51
-37,-5,52
-37,-5,51
-38,-5,51
-37,-5,51
-38,-5,51
-38,-5,51
-37,-5,52
-37,-5,51
-38,-5,51
-38,-5,51
-37,-5,52
-37,-5,52
-38,-5,51
-38,-5,51
-37,-5,52
-37,-5,51
-37,-5,51
-38,-5,51
-38,-5,52
-38,-5,51
-38,-5,51
-37,-5,52
-38,-5,51
-38,-5,51
-37,-5,51
-37,-5,51
-38,-5,51
-37,-5,51
-38,-5,51
-38,-5,51
-37,-5,51
-38,-5,51
-38,-5,51
-38,-5,51
-38,-5,51
-38,-5,51
-37,-5,51
-38,-5,51
-38,-5,51
-38,-5,51
-38,-5,51
-37,-5,51
-38,-5,51
-38,-5,51
-38,-5,51
-37,-5,51
-37,-5,51
-38,-5,51
-38,-5,51
-38,-5,52
-38,-6,51
-38,-5,51
-38,-5,51
-38,-5,51
-38,-5,51
-37,-5,51
-38,-5,51
-38,-5,51
-38,-5,51
-38,-5,51
-38,-5,52
-38,-5,51
-38,-5,51
-38,-5,51
-38,-5,51
-38,-5,51
-38,-5,51
-38,-5,51
-38,-5,51
-38,-5,51
-38,-5,51
-38,-5,51
-38,-5,51
-38,-5,51
-38,-5,51
-37,-5,51
-38,-6,51
-38,-5,51
-38,-5,51
-38,-5,51
-38,-6,51
-37,-5,51
-38,-5,51
-43,-3,53
-41,-3,55
-44,-3,59
-37,-4,65
-40,-5,67
-44,-6,67
-44,-8,66
-42,-15,55
-37,-15,51
-37,-21,41
-32,-24,41
-24,-30,43
-26,-33,37
-25,-35,33
-28,-38,32
-33,-37,32
-31,-37,33
-28,-37,36
-36,-36,35
-45,-34,34
-35,-34,41
-36,-30,44
-44,-28,42
-39,-25,45
-33,-24,47
-30,-25,44
-28,-22,45
-31,-21,46
-28,-18,50
-28,-16,50
-24,-13,53
-28,-9,53
-29,-7,54
-25,-8,56
-28,-10,56
-26,-10,57
-34,0,59
-34,-15,63
-24,-13,57
-24,-10,61
-25,-12,58
-27,-12,56
-33,-11,55
-32,-11,54
-35,-12,53
-33,-12,54
-31,-13,55
-31,-14,55
-32,-15,53
-36,-14,51
-35,-13,52
-35,-13,52
-36,-15,51
-33,-13,53
-34,-14,52
-30,-14,56
-44,-17,47
-32,-13,52
-26,-11,58
-27,-8,56
-39,-11,49
-31,-12,52
-33,-10,56
-22,-6,56
-27,-11,58
-28,-12,56
-36,-13,52
-34,-12,52
-31,-11,55
-35,-10,53
-31,-10,55
-35,-12,52
-31,-12,54
-33,-15,53
-34,-15,52
-31,-14,54
-29,-12,56
-37,-13,52
-36,-15,50
-27,-16,56
-28,-10,54
-35,-11,50
-35,-12,52
-29,-12,56
-31,-14,54
-36,-13,49
-33,-9,54
-23,-11,59
-22,-12,60
-22,-11,60
-25,-11,59
-23,-12,59
-36,-15,52
-31,-14,57
-30,-11,55
-27,-11,56
-23,-6,57
-33,-11,53
-32,-13,51
-17,-9,61
-20,-11,60
-23,-10,60
-30,-11,58
-35,-15,53
-30,-13,54
-27,-14,56
-26,-9,57
-27,-10,56
-29,-12,56
-28,-13,56
-26,-13,58
-26,-12,57
-28,-12,56
-29,-11,56
-26,-12,57
-26,-12,58
-30,-13,55
-30,-13,57
-32,-12,56
-29,-13,55
-24,-5,58
-17,-6,59
-32,-6,53
-26,-11,55
-27,-10,56
-25,-11,60
-27,-13,57
-19,-14,62
-22,-13,58
-27,-9,56
-21,-10,60
-22,-12,60
-24,-12,58
-26,-12,57
-25,-12,58
-23,-12,59
-28,-12,56
-29,-15,54
-28,-14,56
-24,-10,58
-26,-10,56
-28,-12,56
-23,-14,59
-24,-13,59
-26,-13,56
-27,-12,56
-27,-13,56
-24,-12,58
-25,-12,57
-27,-13,56
-27,-13,58
-27,-12,58
-25,-13,58
-26,-12,57
-31,-13,53
-28,-12,55
-27,-10,57
-28,-12,58
-30,-15,57
-33,-15,55
-30,-11,56
-29,-5,56
-20,-4,58
-32,-5,51
-30,-8,54
-24,-10,62
-25,-15,59
-25,-13,59
-25,-13,58
-25,-8,57
-29,-9,56
-23,-12,59
-18,-13,60
-23,-14,61
-28,-11,55
-22,-11,58
-23,-11,59
-22,-11,60
-22,-11,59
-22,-12,59
-22,-12,59
-21,-12,59
-22,-12,59
-22,-12,58
-22,-13,59
-21,-12,59
-23,-13,58
-22,-13,59
-22,-12,59
-23,-12,58
-23,-12,58
-21,-12,59
-21,-13,59
-23,-13,58
-22,-13,59
-23,-12,58
-22,-13,59
-22,-13,59
-22,-13,59
-22,-13,59
-22,-12,60
-24,-11,59
-24,-10,61
-33,1,59
-38,0,62
-33,-5,64
-36,-4,63
-30,-8,51
-28,-18,44
-22,-20,47
-14,-26,38
-13,-32,34
-15,-34,38
-23,-32,39
-27,-34,47
-24,-32,52
-31,-31,48
-41,-29,47
-38,-30,45
-50,-26,39
-55,-24,43
-49,-22,46
-53,-20,36
-57,-18,33
-60,-15,32
-59,-14,30
-58,-13,30
-54,-12,27
-55,-14,21
-61,-15,14
-62,-14,15
-60,-15,17
-60,-15,14
-61,-17,6
-58,-16,5
-54,-15,7
-61,-14,4
-61,-14,2
-68,-15,-1
-65,-13,2
-64,-13,5
-65,-14,1
-63,-14,3
-59,-13,7
-61,-13,5
-63,-13,7
-63,-13,7
-64,-13,6
-64,-12,6
-63,-12,5
-62,-13,5
-63,-12,5
-62,-12,7
-62,-12,7
-62,-13,6
-63,-12,6
-61,-12,6
-61,-12,8
-61,-13,7
-61,-12,7
-61,-11,7
-61,-12,6
-63,-12,3
-64,-12,3
-65,-11,2
-65,-10,1
-65,-10,0
-63,-10,2
-64,-10,1
-63,-10,0
-63,-10,0
-62,-12,0
-62,-12,0
-64,-11,-1
-64,-10,-2
-63,-10,-1
-62,-10,1
-63,-10,1
-63,-10,1
-63,-11,1
-63,-10,0
-63,-11,0
-63,-11,0
-62,-11,0
-63,-10,0
-63,-10,1
-63,-10,1
-63,-10,1
-63,-10,2
-63,-10,1
-63,-10,1
-63,-10,1
-62,-11,1
-63,-10,1
-63,-10,1
-63,-10,1
-63,-10,1
-63,-10,1
-63,-10,1
-63,-10,1
-63,-11,1
-63,-10,0
-63,-10,1
-63,-10,1
-63,-11,1
-63,-11,1
-63,-10,1
-63,-10,1
-63,-10,1
-63,-10,1
-63,-10,1
-63,-10,1
-63,-10,1
-63,-10,1
-63,-10,1
-63,-10,1
-63,-11,1
-63,-10,1
-63,-11,1
-63,-10,1
-63,-10,1
-63,-10,1
-63,-10,1
-66,-10,1
-71,-9,1
-72,-7,4
-74,-4,12
-76,-7,13
-81,-8,14
-81,-11,5
-68,-15,16
-52,-17,18
-48,-33,28
-40,-43,27
-29,-49,29
-21,-51,26
-18,-50,28
-22,-40,30
-26,-37,26
-26,-28,34
-30,-17,43
-33,-10,44
-35,-5,48
-35,-5,54
-30,-5,49
-32,-7,46
-30,-10,60
-20,-15,54
-27,-20,45
-54,-16,86
-29,-27,65
-30,-18,53
-31,-16,50
-29,-18,55
-32,-18,54
-30,-19,54
-31,-17,53
-32,-19,51
-34,-20,51
-35,-18,50
-34,-18,51
-33,-17,52
-33,-17,52
-33,-18,51
-34,-18,51
-34,-18,51
-35,-18,50
-35,-18,50
-33,-17,51
-34,-17,51
-35,-18,50
-35,-18,50
-34,-18,51
-35,-18,50
-34,-18,51
-34,-17,51
-34,-17,51
-34,-18,51
-34,-17,51
-34,-17,51
-34,-18,51
-34,-18,51
-34,-17,51
-34,-18,51
-35,-17,51
-34,-17,51
-34,-18,51
-34,-18,50
-35,-18,50
-35,-17,51
-34,-17,51
-34,-18,51
-35,-18,51
-35,-18,50
-34,-17,51
-34,-17,51
-35,-18,50
-34,-18,51
-34,-18,51
-34,-18,51
-35,-18,50
-35,-18,51
-34,-18,51
-35,-18,50
-35,-18,51
-35,-18,51
-34,-17,51
-34,-17,51
-35,-17,50
-34,-17,50
-34,-17,50
-35,-17,51
-35,-18,50
-35,-18,50
-35,-18,50
-35,-18,50
-35,-17,50
-35,-18,50
-35,-18,50
-35,-18,50
-36,-17,49
-35,-17,50
-35,-18,50
-35,-18,50
-35,-18,51
-35,-18,50
-35,-18,50
-35,-18,50
-35,-18,50
-35,-18,50
-34,-18,49
-35,-19,52
-35,-18,50
-35,-18,50
-35,-18,50
-35,-18,50
-35,-18,50
-35,-18,50
-35,-18,50
-34,-18,50
-35,-18,50
-35,-18,50
-35,-18,51
-35,-18,50
-35,-18,50
-35,-18,50
-35,-18,50
-35,-18,50
-35,-18,50
-35,-18,50
-35,-18,50
-35,-18,50
-36,-18,50
-35,-18,50
-35,-18,50
-35,-18,50
-34,-18,50
-35,-18,50
-35,-18,50
-35,-18,50
-35,-18,50
-35,-18,50
-35,-18,50
-36,-18,50
-35,-18,50
-34,-18,51
-35,-18,51
-35,-18,50
-35,-18,49
-36,-18,49
-35,-18,50
-35,-18,51
-34,-19,50
-36,-18,50
-36,-18,50
-35,-18,50
-35,-18,49
-35,-18,50
-36,-19,49
-36,-18,50
-35,-18,50
-35,-18,50
-35,-18,50
-35,-19,49
-35,-18,50
-35,-18,50
-35,-18,50
-35,-18,50
-35,-18,51
-35,-18,50
-35,-18,50
-35,-18,50
-35,-18,50
-36,-18,50
-35,-18,50
-34,-18,51
-35,-18,50
-35,-18,49
-35,-18,50
-35,-18,50
-35,-18,50
-35,-18,50
-36,-18,49
-35,-18,50
-35,-18,50
-35,-18,50
-35,-18,50
-35,-18,50
-35,-18,50
-35,-18,50
-36,-18,50
-36,-18,50
-35,-18,51
-36,-18,50
-35,-18,50
-35,-18,50
-35,-18,50
-35,-18,50
-35,-18,50
-35,-18,50
-35,-18,50
-35,-18,50
-35,-18,50
-35,-18,50
-35,-18,50
-35,-18,50
-35,-18,50
-35,-18,50
-35,-18,50
-35,-18,50
-35,-18,50
-35,-18,50
-35,-18,50
-35,-18,51
-36,-18,49
-35,-18,50
-35,-18,50
-35,-18,50
-35,-18,50
-35,-18,50
-35,-18,50
-35,-18,50
-35,-17,50
-35,-18,50
-35,-18,50
-35,-18,50
-35,-18,50
-35,-18,50
-35,-18,50
-35,-18,50
-35,-18,50
-35,-18,50
-35,-18,50
-35,-18,50
-35,-18,50
-35,-18,50
-35,-18,50
-35,-18,50
-35,-18,50
-35,-18,50
-35,-18,50
-35,-18,50
-35,-18,50
-35,-18,50
-35,-18,50
-35,-18,50
-35,-18,50
-35,-18,50
-35,-18,50
-35,-18,50
-35,-18,50
-35,-18,50
-35,-18,50
-35,-18,50
-35,-18,50
-35,-18,50
-35,-18,50
-35,-18,50
-35,-18,50
-35,-18,50
-35,-18,50
-35,-18,50
-35,-18,50
-35,-18,50
-35,-18,50
-35,-18,50
-35,-18,50
-35,-18,50
-35,-18,50
-35,-18,50
-35,-18,50
-35,-18,50
-35,-18,50
-35,-18,50
-35,-18,50
-35,-18,50
-35,-18,50
-35,-18,50
-35,-18,50
-35,-18,49
-35,-18,50
-35,-18,50
-35,-18,50
-35,-18,50
-35,-18,50
-35,-18,50
-35,-19,50
-35,-18,50
-35,-18,50
-35,-18,50
-35,-18,50
-35,-18,50
-35,-18,50
-35,-18,50
-35,-18,50
-35,-18,50
-35,-18,50
-35,-18,50
-35,-18,50
-35,-18,50
-35,-18,50
-35,-18,50
-35,-18,50
-35,-18,50
-35,-18,50
-35,-18,50
-35,-18,50
-35,-18,49
-35,-19,50
-35,-18,50
-35,-18,49
-35,-18,50
-35,-18,50
-35,-18,50
-35,-18,50
-35,-18,50
-35,-18,50
-35,-18,50
-35,-18,50
-36,-19,50
-35,-18,50
-35,-18,50
-35,-18,50
-35,-18,50
-35,-18,50
-35,-18,50
-35,-18,50
-35,-18,49
-35,-19,50
-35,-18,50
-34,-19,50
-35,-18,50
-34,-18,50
-36,-19,49
-36,-19,49
-36,-20,49
-35,-19,50
-34,-21,50
-35,-21,49
-36,-21,49
-36,-19,49
-35,-20,49
-35,-21,49
-35,-21,49
-35,-21,49
-35,-20,49
-35,-20,49
-35,-21,49
-36,-21,49
-36,-20,49
-35,-20,50
-35,-20,49
-35,-21,49
-35,-20,49
-36,-21,49
-36,-20,49
-35,-20,49
-35,-20,49
-35,-20,49
-35,-20,49
-35,-20,49
-35,-20,49
-35,-21,49
-35,-21,49
-35,-20,49
-35,-20,49
-35,-19,49
-35,-20,49
-35,-21,49
-36,-21,49
-35,-20,49
-35,-20,49
-35,-20,49
-36,-21,49
-35,-20,49
-35,-20,49
-35,-20,49
-36,-21,49
-35,-21,49
-36,-20,49
-36,-20,49
-35,-19,50
-36,-20,49
-36,-22,48
-36,-22,49
-35,-20,49
-36,-20,49
-36,-20,48
-36,-20,49
-36,-20,48
-35,-21,49
-35,-21,49
-36,-21,49
-36,-20,48
-35,-20,50
-34,-20,50
-35,-21,49
-35,-19,49
-35,-19,49
-36,-20,49
-36,-22,49
-35,-22,49
-35,-20,49
-36,-20,49
-36,-20,49
-36,-21,49
-36,-21,49
-35,-20,49
-35,-20,49
-35,-20,49
-35,-21,49
-36,-21,48
-36,-20,49
-35,-20,49
-36,-21,49
-36,-21,48
-35,-20,49
-35,-20,49
-35,-21,49
-36,-21,49
-36,-21,49
-36,-20,49
-35,-21,49
-36,-21,48
-36,-21,48
-36,-21,49
-35,-21,49
-35,-21,49
-35,-21,49
-35,-21,49
-35,-21,49
-36,-21,48
-35,-21,49
-35,-21,49
-35,-21,49
-35,-21,49
-36,-20,48
-35,-21,49
-35,-21,49
-35,-21,49
-35,-21,49
-35,-21,49
-35,-21,49
-35,-21,49
-35,-21,49
-35,-21,49
-35,-21,49
-36,-21,49
-35,-21,49
-35,-21,49
-35,-21,49
-36,-21,48
-35,-21,49
-35,-21,49
-36,-21,49
-35,-21,49
-35,-21,49
-35,-21,49
-35,-21,49
-35,-21,48
-35,-21,49
-35,-21,49
-35,-21,49
-36,-21,49
-35,-21,49
-35,-21,49
-35,-20,49
-35,-21,49
-36,-21,49
-35,-21,49
-35,-20,49
-35,-21,49
-35,-21,49
-35,-21,49
-35,-21,49
-36,-21,49
-36,-21,49
-35,-21,49
-35,-21,49
-36,-21,49
-35,-21,49
-35,-21,49
-35,-21,49
-36,-21,48
-36,-21,48
-35,-21,49
-35,-21,49
-36,-21,49
-35,-21,49
-35,-21,49
-35,-21,49
-35,-21,49
-35,-21,49
-35,-21,49
-35,-20,49
-36,-21,49
-35,-21,49
-35,-20,49
-35,-21,49
-35,-21,49
-35,-21,49
-35,-21,49
-36,-21,48
-35,-21,49
-35,-21,49
-35,-21,48
-35,-21,49
-35,-21,49
-35,-21,49
-35,-21,49
-35,-21,49
-35,-21,49
-36,-20,49
-35,-21,49
-35,-21,49
-35,-21,49
-35,-20,49
-35,-21,49
-35,-21,49
-35,-21,49
-35,-20,49
-35,-21,49
-35,-21,49
-35,-21,49
-35,-21,49
-36,-21,49
-35,-21,49
-35,-20,49
-35,-22,49
-36,-21,49
-36,-20,49
-36,-20,49
-35,-20,49
-34,-21,50
-35,-19,49
-36,-19,49
-36,-19,49
-36,-20,49
-36,-21,48
-35,-20,49
-35,-20,50
-35,-19,49
-35,-19,49
-35,-20,49
-36,-19,49
-35,-19,49
-35,-19,50
-35,-19,50
-35,-20,50
-35,-19,50
-35,-18,50
-35,-19,49
-35,-19,49
-34,-19,50
-34,-19,50
-35,-19,50
-35,-19,50
-35,-19,50
-35,-19,50
-35,-19,50
-35,-19,50
-35,-19,50
-35,-19,50
-35,-19,50
-35,-19,50
-35,-19,50
-35,-19,50
-34,-18,50
-35,-19,50
-35,-19,50
-35,-19,50
-34,-19,50
-35,-19,50
-35,-19,50
-34,-19,50
-35,-19,50
-35,-19,50
-35,-19,50
-35,-19,50
-35,-19,50
-34,-19,50
-35,-19,50
-35,-19,50
-35,-18,50
-35,-19,49
-35,-19,50
-35,-19,50
-35,-19,50
-35,-19,50
-35,-19,50
-35,-18,50
-35,-19,50
-35,-19,50
-35,-19,50
-35,-19,50
-35,-19,50
-35,-19,50
-35,-19,50
-35,-19,50
-35,-18,50
-35,-19,50
-35,-19,50
-35,-19,50
-35,-19,50
-35,-19,50
-35,-19,51
-34,-19,50
-35,-19,50
-35,-18,50
-36,-18,49
-35,-19,50
-34,-19,50
-35,-18,50
-35,-18,50
-35,-19,50
-35,-18,50
-35,-18,50
-35,-19,50
-35,-19,50
-36,-19,50
-35,-19,50
-35,-19,50
-34,-19,50
-35,-19,50
-35,-18,50
-35,-19,50
-35,-19,50
-35,-19,50
-35,-19,50
-35,-19,50
-35,-19,50
-35,-19,50
-35,-19,50
-35,-19,50
-35,-19,50
-35,-19,50
-36,-19,50
-36,-19,50
-35,-19,50
-34,-18,50
-35,-18,50
-35,-19,50
-35,-19,50
-35,-18,50
-34,-19,50
-34,-19,50
-35,-19,50
-36,-18,49
-36,-18,49
-34,-19,50
-34,-19,51
-35,-19,49
-35,-19,49
-35,-19,50
-35,-19,50
-35,-19,50
-35,-18,50
-35,-20,50
-35,-20,50
-35,-20,50
-35,-19,50
-35,-19,50
-35,-20,50
-34,-20,50
-35,-19,49
-35,-19,49
-35,-19,50
-35,-19,50
-35,-19,50
-35,-19,50
-35,-19,50
-34,-18,50
-35,-18,50
-35,-19,50
-35,-19,50
-35,-19,50
-34,-19,50
-36,-19,49
-35,-19,50
-35,-19,50
-35,-19,50
-35,-19,50
-35,-19,50
-35,-20,50
-35,-19,50
-35,-19,50
-35,-19,50
-35,-20,50
-34,-20,51
-34,-19,52
-38,-20,52
-40,-15,51
-48,-5,52
-55,0,56
-47,-6,58
-43,-5,53
-40,-13,39
-18,-22,43
-17,-26,41
-21,-32,44
-14,-35,51
7,-48,44
-8,-38,27
-33,-36,31
-25,-33,44
-28,-32,38
-70,-29,26
-77,-24,26
-60,-17,29
-72,-7,31
-70,-6,28
-66,-14,15
-64,-16,11
-59,-16,8
-59,-17,10
-61,-17,14
-66,-15,12
-64,-14,12
-64,-14,15
-64,-15,13
-61,-14,14
-59,-13,15
-58,-15,14
-63,-14,10
-63,-15,10
-62,-16,10
-61,-15,11
-62,-16,12
-61,-16,13
-60,-16,12
-59,-16,14
-60,-15,17
-59,-12,21
-58,-16,18
-62,-17,9
-62,-15,11
-59,-16,13
-59,-16,14
-59,-16,14
-61,-16,14
-60,-16,14
-60,-16,14
-60,-16,13
-60,-16,13
-59,-16,14
-60,-16,14
-61,-16,14
-61,-16,14
-60,-16,16
-57,-16,17
-58,-16,17
-59,-16,14
-59,-16,15
-60,-17,14
-60,-16,14
-61,-16,14
-60,-16,15
-60,-16,15
-61,-16,15
-61,-16,15
-58,-17,17
-59,-16,17
-58,-16,16
-60,-16,15
-60,-16,15
-60,-16,15
-60,-16,15
-60,-16,15
-60,-16,16
-59,-16,16
-59,-16,16
-59,-16,16
-61,-16,13
-62,-17,12
-60,-17,12
-60,-16,15
-61,-17,15
-59,-16,15
-58,-16,15
-61,-16,15
-60,-16,14
-59,-17,14
-60,-16,14
-60,-17,14
-59,-16,14
-60,-16,15
-60,-16,14
-60,-16,14
-60,-16,14
-60,-16,14
-59,-16,15
-60,-16,14
-60,-16,13
-60,-16,13
-59,-16,13
-60,-16,14
-60,-16,14
-60,-16,14
-60,-16,12
-60,-16,13
-61,-16,11
-62,-16,10
-63,-16,10
-61,-17,11
-61,-16,13
-62,-15,14
-60,-15,14
-60,-16,13
-59,-16,13
-60,-17,12
-61,-16,13
-60,-15,14
-63,-16,14
-63,-16,14
-63,-16,13
-62,-17,13
-63,-18,12
-60,-19,11
-59,-19,11
-60,-17,15
-62,-18,11
-66,-18,13
-52,-22,13
-55,-22,14
-60,-22,13
-60,-22,12
-56,-23,13
-58,-22,13
-56,-22,13
-55,-23,15
-54,-23,17
-55,-23,16
-57,-24,15
-59,-23,15
-57,-24,16
-57,-24,15
-56,-22,18
-58,-23,17
-60,-24,17
-58,-26,18
-57,-24,16
-53,-24,19
-51,-23,22
-58,-24,16
-55,-25,19
-54,-24,20
-55,-24,24
-56,-24,23
-54,-23,20
-51,-22,26
-62,-25,17
-57,-24,21
-49,-22,27
-57,-24,20
-54,-24,20
-58,-24,20
-57,-24,20
-54,-25,20
-54,-24,20
-55,-24,20
-55,-24,20
-55,-24,20
-55,-25,19
-56,-24,19
-58,-23,21
-56,-24,20
-55,-24,19
-57,-25,18
-56,-25,18
-55,-24,19
-55,-24,19
-55,-24,19
-56,-24,19
-55,-24,19
-56,-25,19
-56,-24,19
-56,-24,19
-57,-24,19
-56,-24,20
-56,-24,19
-55,-24,19
-55,-24,19
-56,-24,18
-55,-24,18
-56,-24,18
-56,-24,19
-56,-24,19
-56,-24,18
-56,-24,18
-55,-24,18
-56,-25,18
-56,-24,18
-56,-24,18
-56,-24,19
-57,-24,18
-55,-24,18
-55,-24,18
-57,-24,18
-56,-24,18
-57,-24,18
-56,-24,18
-55,-24,18
-56,-24,18
-56,-24,18
-56,-24,18
-56,-24,18
-55,-24,18
-57,-24,18
-57,-24,18
-56,-24,18
-56,-24,18
-56,-24,18
-56,-24,18
-56,-24,18
-56,-24,18
-56,-24,18
-56,-24,18
-56,-24,18
-56,-24,18
-56,-24,18
-56,-24,18
-56,-24,18
-57,-24,18
-56,-24,18
-56,-24,18
-56,-24,17
-56,-24,18
-57,-24,17
-54,-23,19
-57,-24,18
-59,-24,17
-57,-24,19
-56,-25,16
-53,-23,18
-57,-23,17
-56,-23,17
-57,-24,18
-59,-25,17
-56,-24,18
-55,-24,18
-56,-24,18
-57,-24,17
-56,-23,18
-57,-24,19
-56,-24,18
-57,-24,18
-57,-24,18
-57,-24,17
-56,-24,15
-59,-23,17
-57,-24,16
-55,-24,18
-55,-24,20
-58,-24,20
-55,-23,21
-56,-23,19
-56,-22,20
-59,-24,17
-56,-24,18
-52,-24,20
-56,-24,20
-56,-24,19
-54,-23,18
-54,-24,21
-52,-24,22
-53,-24,18
-60,-22,6
-62,-22,2
-57,-22,-1
-68,-27,-11
-61,-25,-2
-62,-24,-4
-63,-24,-5
-56,-22,-3
-61,-27,-4
-55,-26,-3
-54,-26,-3
-55,-26,-3
-57,-25,-3
-57,-25,-2
-57,-25,-1
-58,-25,-2
-60,-25,-2
-59,-25,-2
-59,-25,-2
-59,-25,-1
-59,-25,-1
-58,-26,-1
-59,-26,-1
-59,-26,-3
-59,-25,-2
-58,-25,-1
-59,-25,-2
-59,-26,-2
-57,-25,-1
-58,-25,-2
-58,-25,-1
-58,-25,-1
-59,-25,-1
-59,-25,-1
-59,-25,0
-59,-25,-1
-59,-25,0
-59,-25,0
-57,-25,1
-56,-25,1
-59,-25,0
-60,-25,-1
-59,-25,0
-59,-25,1
-60,-24,0
-59,-24,1
-60,-24,1
-60,-24,1
-59,-24,1
-58,-24,2
-58,-25,1
-58,-25,0
-58,-25,1
-58,-25,0
-58,-24,0
-58,-25,0
-59,-25,0
-59,-25,0
-59,-24,0
-59,-24,1
-60,-24,0
-58,-25,1
-58,-25,0
-59,-25,0
-58,-25,0
-59,-25,0
-58,-25,0
-58,-25,0
-59,-25,0
-59,-25,0
-62,-25,-1
-60,-24,0
-60,-24,1
-58,-25,-2
-59,-27,-2
-56,-27,-1
-55,-28,-1
-55,-29,-3
-51,-27,-1
-52,-27,-1
-53,-25,-3
-56,-23,-4
-59,-24,-3
-61,-24,-5
-65,-21,-1
-57,-20,0
-61,-22,-7
-62,-23,-11
-66,-24,-9
-62,-26,-8
-62,-23,-9
-62,-21,-8
-53,-19,-1
-57,-20,-4
-62,-24,-6
-61,-23,-5
-57,-23,-8
-62,-21,-4
-58,-22,-1
-58,-22,-2
-58,-22,-2
-59,-22,-2
-59,-22,-2
-59,-22,-2
-61,-22,-4
-60,-23,-5
-60,-22,-3
-60,-22,-3
-60,-22,-2
-60,-22,-2
-59,-22,-1
-60,-22,-2
-60,-22,-3
-60,-22,-3
-60,-22,-2
-59,-22,-2
-61,-22,-3
-60,-22,-3
-60,-22,-3
-59,-22,-2
-60,-22,-1
-59,-22,-2
-59,-22,-2
-60,-22,-2
-60,-22,-3
-60,-22,-3
-59,-22,-2
-60,-22,-3
-60,-22,-3
-61,-22,-4
-59,-22,0
-60,-22,0
-61,-22,-3
-60,-23,-4
-59,-22,-3
-59,-22,0
-59,-22,1
-60,-22,0
-60,-22,-1
-59,-22,-1
-61,-22,-1
-59,-21,1
-58,-20,2
-62,-22,-3
-59,-23,-5
-59,-22,-4
-61,-22,-4
-61,-22,-3
-60,-22,-3
-60,-22,-3
-60,-22,-3
-60,-22,-4
-59,-22,-3
-60,-22,-3
-60,-22,-4
-60,-22,-3
-60,-21,-1
-58,-21,-2
-59,-22,-4
-59,-22,-5
-60,-22,-6
-60,-23,-6
-60,-22,-6
-59,-22,-5
-60,-22,-5
-59,-22,-6
-59,-23,-6
-59,-22,-6
-60,-22,-5
-59,-22,-4
-60,-23,-5
-60,-22,-5
-59,-23,-4
-58,-23,-3
-59,-22,0
-59,-23,1
-59,-22,1
-58,-22,1
-59,-22,2
-61,-23,2
-60,-23,3
-60,-24,3
-63,-25,2
-63,-27,4
-62,-26,7
-62,-25,8
-57,-23,6
-58,-22,6
-55,-18,9
-60,-16,7
-61,-17,5
-60,-18,5
-60,-19,5
-60,-20,5
-60,-20,7
-59,-22,6
-60,-22,5
-60,-21,6
-63,-21,3
-64,-20,2
-62,-26,-1
-38,-27,3
-50,-26,2
-57,-25,3
-52,-27,3
-54,-28,0
-57,-28,-1
-58,-25,1
-60,-26,-1
-59,-27,-4
-58,-26,-6
-57,-26,-7
-60,-26,-9
-60,-26,-9
-58,-26,-9
-57,-26,-8
-56,-26,-9
-57,-26,-7
-57,-25,-6
-56,-28,-11
-54,-27,-11
-57,-26,-11
-57,-26,-10
-57,-26,-9
-58,-26,-8
-58,-26,-8
-58,-24,-5
-58,-24,-2
-57,-25,-3
-58,-25,-8
-58,-24,-8
-57,-24,-6
-56,-23,-3
-60,-23,-3
-64,-23,-2
-60,-25,-1
-61,-22,0
-61,-21,0
-61,-21,0
-60,-22,-1
-59,-23,-6
-60,-23,-3
-59,-23,0
-62,-22,0
-60,-22,3
-59,-21,5
-59,-20,6
-59,-20,5
-62,-21,4
-59,-21,4
-61,-21,4
-61,-21,4
-60,-21,5
-61,-21,5
-60,-21,5
-59,-21,4
-59,-21,4
-59,-22,4
-59,-22,4
-60,-21,5
-60,-21,5
-60,-21,5
-59,-21,4
-60,-21,4
-60,-21,4
-60,-21,4
-59,-22,4
-59,-22,5
-61,-21,4
-60,-21,5
-60,-21,5
-60,-22,5
-59,-21,5
-60,-21,4
-59,-21,5
-59,-21,4
-60,-22,4
-60,-22,5
-60,-21,5
-60,-21,4
-60,-21,4
-60,-22,4
-59,-22,4
-60,-22,4
-59,-22,4
-59,-22,5
-59,-21,5
-60,-22,4
-60,-21,6
-61,-22,5
-61,-22,4
-60,-22,4
-59,-22,4
-60,-22,4
-59,-22,4
-60,-21,4
-60,-22,5
-59,-22,5
-60,-22,6
-59,-22,5
-59,-22,4
-60,-22,3
-59,-22,3
-60,-22,2
-60,-22,2
-59,-22,3
-60,-22,3
-60,-22,3
-60,-22,3
-59,-22,3
-59,-22,3
-60,-22,2
-60,-22,3
-59,-22,3
-59,-22,3
-60,-22,3
-59,-22,3
-60,-22,3
-60,-22,3
-60,-22,2
-60,-22,3
-60,-22,3
-60,-22,3
-59,-22,4
-60,-22,4
-59,-22,4
-60,-22,4
-59,-22,3
-60,-22,3
-59,-22,4
-59,-22,3
-60,-22,3
-60,-22,3
-60,-22,4
-60,-22,3
-60,-22,4
-60,-22,4
-59,-22,3
-59,-22,4
-59,-22,4
-60,-22,3
-60,-22,3
-60,-22,4
-60,-22,4
-60,-22,4
-60,-22,4
-59,-22,4
-59,-22,5
-59,-22,5
-58,-22,4
-58,-22,4
-59,-22,3
-59,-22,3
-61,-22,2
-60,-22,4
-61,-22,4
-60,-22,4
-59,-22,4
-59,-22,4
-59,-22,4
-59,-22,6
-60,-24,6
-58,-25,3
-61,-23,2
-61,-21,3
-56,-20,7
-60,-20,7
-67,-19,0
-62,-21,3
-59,-20,7
-60,-21,7
-64,-21,6
-63,-21,8
-58,-21,8
-60,-22,7
-59,-24,4
-55,-24,6
-62,-21,0
-62,-22,4
-76,-24,9
-79,-23,14
-80,-22,19
-57,-24,33
-40,-30,40
-41,-40,35
-51,-44,20
-34,-51,10
-6,-48,23
-9,-47,23
-33,-43,17
-44,-36,16
-41,-30,27
-42,-24,35
-45,-19,39
-41,-14,43
-40,-13,44
-38,-13,51
-41,-14,51
-23,-17,44
-38,-16,51
-36,-16,58
-27,-20,56
-27,-21,54
-48,-23,61
-30,-23,52
-26,-21,50
-28,-20,53
-27,-21,55
-34,-21,53
-37,-20,52
-33,-17,49
-33,-17,50
-36,-20,49
-36,-21,49
-35,-20,50
-33,-21,50
-33,-21,50
-34,-22,49
-35,-23,50
-34,-22,50
-36,-22,48
-35,-22,48
-35,-22,49
-35,-21,49
-35,-21,48
-35,-21,49
-35,-21,49
-36,-21,49
-35,-21,49
-36,-21,48
-35,-21,49
-36,-21,49
-35,-21,49
-36,-21,48
-36,-21,48
-36,-21,48
-35,-21,49
-35,-21,49
-36,-21,48
-36,-21,48
-35,-21,49
-35,-21,48
-36,-21,48
-36,-22,48
-36,-21,48
-36,-21,48
-36,-21,48
-36,-21,48
-36,-21,48
-36,-21,48
-36,-21,49
-36,-21,49
-36,-21,48
-35,-21,49
-36,-21,49
-36,-21,49
-36,-21,48
-35,-21,49
-35,-21,49
-36,-21,48
-36,-21,48
-36,-21,48
-35,-21,49
-35,-22,49
-35,-21,48
-36,-22,48
-36,-22,48
-36,-21,48
-35,-21,48
-35,-21,49
-36,-22,48
-36,-22,49
-36,-21,49
-35,-22,48
-35,-21,48
-36,-21,48
-36,-21,49
-35,-22,48
-35,-22,48
-36,-22,48
-36,-21,48
-35,-22,49
-35,-22,49
-35,-22,48
-36,-21,48
-36,-22,48
-36,-21,49
-35,-22,49
-36,-22,48
-36,-21,49
-36,-22,49
-35,-21,49
-35,-22,49
-35,-21,49
-35,-21,49
-35,-21,48
-36,-22,47
-36,-22,48
-36,-22,48
-36,-22,48
-36,-21,48
-36,-21,48
-35,-21,48
-35,-22,49
-36,-22,48
-36,-22,48
-36,-22,48
-35,-22,48
-35,-22,49
-35,-22,48
-36,-22,48
-36,-22,48
-36,-22,47
-36,-22,48
-36,-22,48
-36,-22,48
-36,-23,48
-36,-22,48
-36,-22,47
-36,-22,47
-36,-22,47
-36,-23,47
-36,-22,48
-36,-22,48
-36,-23,48
-36,-22,48
-36,-22,47
-36,-22,47
-36,-22,48
-36,-22,48
-36,-22,48
-35,-21,48
-36,-22,48
-36,-22,48
-36,-22,48
-36,-21,48
-35,-21,48
-35,-22,48
-36,-22,48
-36,-22,48
-36,-22,48
-36,-22,48
-36,-22,48
-36,-22,48
-36,-22,48
-35,-22,48
-36,-22,48
-36,-22,48
-36,-22,48
-36,-22,48
-36,-22,48
-36,-22,48
-36,-22,48
-36,-22,47
-36,-22,48
-36,-22,47
-36,-22,48
-35,-22,48
-35,-21,49
-35,-22,48
-35,-22,48
-36,-22,48
-37,-22,47
-36,-22,48
-35,-22,48
-36,-21,48
-37,-22,48
-37,-22,48
-36,-22,48
-34,-22,48
-35,-21,49
-35,-20,49
-35,-21,49
-36,-21,48
-36,-21,48
-37,-22,47
-36,-24,47
-36,-23,48
-35,-21,49
-35,-20,49
-36,-21,48
-37,-22,47
-37,-23,47
-36,-22,48
-36,-21,48
-36,-21,48
-35,-21,48
-36,-21,48
-36,-21,48
-36,-21,48
-35,-21,49
-35,-21,49
-36,-21,48
-37,-21,48
-36,-21,49
-35,-21,49
-35,-21,49
-36,-21,48
-36,-21,48
-36,-21,48
-36,-21,49
-36,-21,49
-36,-21,48
-36,-21,48
-36,-21,48
-36,-21,48
-36,-21,48
-36,-21,48
-36,-22,48
-37,-22,48
-37,-22,47
-38,-22,47
-36,-21,48
-36,-21,48
-37,-21,48
-37,-22,48
-36,-21,48
-37,-21,47
-36,-21,48
-36,-21,48
-36,-21,48
-37,-21,48
-36,-21,48
-37,-21,48
-37,-21,48
-37,-21,48
-37,-20,48
-37,-20,48
-36,-21,48
-36,-21,48
-37,-21,48
-37,-21,48
-37,-20,48
-36,-22,48
-37,-21,48
-37,-21,48
-37,-21,48
-36,-21,48
-37,-21,48
-37,-21,48
-37,-21,47
-38,-21,47
-37,-21,47
-37,-21,48
-37,-21,47
-37,-21,48
-38,-21,47
-37,-21,48
-37,-21,48
-37,-21,47
-37,-21,48
-37,-21,48
-37,-21,48
-37,-21,48
-37,-21,48
-36,-21,48
-37,-21,47
-37,-21,48
-37,-21,48
-37,-21,47
-37,-21,47
-37,-21,48
-37,-21,48
-36,-21,47
-37,-21,48
-37,-21,48
-37,-21,48
-37,-21,48
-37,-21,47
-37,-21,48
-37,-21,48
-37,-21,48
-37,-21,47
-37,-21,47
-37,-21,47
-36,-21,48
-37,-21,47
-37,-21,48
-37,-21,47
-37,-22,48
-36,-21,48
-37,-21,48
-36,-22,48
-36,-21,48
-37,-21,48
-36,-21,48
-37,-21,48
-37,-21,47
-37,-21,48
-37,-21,47
-36,-21,48
-37,-21,48
-36,-22,48
-37,-22,48
-37,-21,48
-37,-21,48
-36,-22,48
-37,-21,48
-37,-21,47
-37,-21,47
-37,-21,48
-37,-21,47
-37,-21,47
-37,-21,48
-36,-21,48
-37,-22,48
-37,-21,48
-37,-21,48
-36,-21,48
-37,-21,48
-37,-21,47
-37,-21,48
-36,-21,48
-37,-21,48
-37,-21,47
-37,-21,47
-37,-21,47
-37,-21,47
-37,-21,47
-36,-21,48
-36,-22,48
-37,-22,48
-37,-21,47
-37,-21,48
-36,-21,48
-36,-21,48
-36,-21,47
-37,-21,47
-37,-21,48
-36,-21,48
-37,-21,48
-37,-21,48
-37,-21,48
-36,-21,48
-36,-21,48
-37,-21,48
-37,-21,48
-36,-21,48
-36,-21,48
-36,-21,48
-37,-21,48
-36,-21,48
-36,-21,48
-36,-21,48
-37,-21,48
-37,-21,48
-36,-21,48
-36,-21,48
-36,-21,48
-37,-21,48
-36,-21,48
-36,-21,48
-37,-21,48
-36,-21,48
-36,-21,48
-36,-21,48
-36,-21,48
-36,-21,48
-37,-21,48
-36,-21,48
-36,-21,48
-36,-21,48
-37,-21,48
-37,-21,48
-37,-21,48
-36,-21,48
-36,-21,48
-36,-21,48
-36,-21,48
-36,-21,48
-36,-21,48
-36,-21,48
-36,-21,48
-37,-21,48
-36,-21,48
-36,-21,48
-36,-21,48
-36,-21,48
-36,-21,48
-37,-21,48
-37,-21,48
-36,-21,48
-36,-21,48
-36,-21,47
-37,-21,48
-36,-21,48
-36,-21,48
-36,-21,48
-36,-21,48
-36,-21,48
-36,-21,48
-36,-21,48
-36,-21,48
-36,-21,48
-36,-21,48
-36,-21,48
-36,-21,48
-36,-21,48
-36,-21,48
-36,-21,48
-36,-21,47
-36,-21,48
-36,-21,48
-36,-21,48
-36,-21,48
-36,-21,48
-36,-21,48
-36,-21,48
-36,-21,48
-36,-21,48
-37,-21,48
-36,-21,48
-36,-21,48
-37,-21,48
-36,-21,48
-36,-21,48
-36,-21,48
-36,-21,48
-36,-21,48
-37,-21,48
-36,-21,48
-36,-21,48
-36,-21,48
-36,-21,48
-36,-21,48
-37,-21,48
-36,-21,48
-36,-21,48
-37,-21,48
-36,-21,48
-36,-21,48
-36,-21,48
-37,-21,48
-36,-21,48
-37,-22,48
-36,-21,48
-36,-21,48
-36,-21,48
-37,-21,48
-36,-21,48
-36,-22,48
-36,-22,48
-36,-21,48
-36,-21,48
-36,-22,48
-36,-21,48
-36,-21,48
-36,-22,48
-36,-21,48
-36,-21,48
-36,-21,48
-36,-21,48
-36,-21,48
-36,-22,48
-36,-21,48
-36,-21,48
-36,-22,48
-36,-21,48
-36,-21,48
-36,-21,48
-36,-21,48
-36,-21,48
-36,-21,48
-36,-21,48
-36,-22,48
-36,-22,48
-36,-21,48
-36,-21,48
-36,-21,48
-36,-22,48
-36,-21,48
-36,-22,47
-36,-21,48
-36,-21,48
-36,-22,48
-36,-21,48
-36,-21,48
-36,-22,48
-36,-21,48
-36,-21,48
-36,-21,48
-36,-21,48
-36,-21,48
-36,-21,48
-36,-21,48
-36,-21,48
-36,-21,48
-36,-21,48
-36,-21,48
-36,-21,48
-36,-21,48
-36,-21,48
-36,-21,48
-36,-21,48
-36,-21,48
-36,-21,48
-36,-22,47
-36,-22,48
-36,-21,48
-36,-21,48
-36,-22,48
-36,-22,48
-36,-22,48
-36,-21,48
-36,-21,48
-36,-21,48
-36,-22,48
-36,-21,48
-36,-21,48
-36,-21,48
-36,-22,48
-36,-21,48
-36,-21,48
-36,-21,48
-36,-21,48
-36,-22,48
-36,-22,48
-36,-22,48
-36,-21,48
-36,-22,48
-36,-21,48
-36,-21,48
-36,-21,48
-36,-22,48
-36,-22,48
-36,-22,48
-36,-21,48
-36,-22,48
-36,-21,48
-36,-22,48
-36,-21,48
-36,-22,48
-36,-21,48
-36,-22,48
-36,-21,48
-36,-21,48
-36,-22,48
-36,-22,48
-36,-21,48
-36,-21,48
-36,-22,48
-36,-21,48
-36,-21,48
-36,-21,47
-36,-21,48
-36,-21,48
-36,-21,48
-36,-21,48
-36,-22,48
-36,-21,48
-36,-21,48
-36,-21,48
-36,-21,48
-36,-22,48
-36,-21,48
-36,-22,48
-36,-22,48
-36,-22,48
-36,-22,48
-36,-22,48
-36,-21,48
-36,-21,48
-36,-22,48
-36,-21,48
-36,-22,48
-36,-22,48
-36,-21,48
-36,-21,48
-36,-21,48
-36,-21,48
-36,-21,48
-36,-22,48
-36,-21,48
-36,-21,48
-36,-22,48
-36,-21,48
-36,-21,48
-36,-22,48
-36,-21,48
-36,-21,48
-36,-21,48
-36,-21,48
-36,-21,48
-36,-22,48
-36,-22,48
-36,-22,48
-36,-21,48
-36,-22,48
-36,-21,48
-35,-22,48
-36,-21,48
-36,-21,48
-37,-21,48
-37,-21,48
-35,-22,48
-39,-23,46
-41,-22,44
-35,-21,47
-28,-23,53
-35,-25,46
-48,-26,38
-37,-23,46
-38,-26,44
-43,-25,41
-41,-24,42
-43,-24,41
-41,-23,42
-42,-23,41
-42,-22,42
-41,-23,43
-42,-23,42
-42,-23,42
-42,-23,41
-43,-23,41
-43,-23,41
-41,-22,43
-42,-23,42
-42,-24,42
-43,-24,41
-41,-23,43
-41,-23,44
-41,-23,42
-41,-23,43
-41,-23,42
-41,-24,44
-41,-23,43
-42,-23,42
-42,-23,43
-40,-23,44
-40,-23,44
-41,-23,44
-41,-23,43
-41,-23,43
-40,-23,44
-40,-23,44
-40,-23,44
-42,-23,42
-41,-23,43
-40,-23,44
-40,-23,45
-40,-23,44
-40,-23,44
-41,-23,43
-40,-23,44
-41,-23,44
-40,-22,45
-40,-23,44
-41,-23,43
-40,-22,44
-40,-23,45
-41,-23,44
-40,-23,44
-40,-23,44
-40,-22,45
-40,-23,44
-40,-23,44
-40,-23,45
-40,-23,44
-40,-22,44
-40,-23,44
-40,-23,44
-40,-23,44
-40,-22,44
-40,-23,44
-40,-23,44
-40,-22,44
-40,-22,44
-40,-23,44
-40,-23,44
-40,-23,45
-40,-22,44
-40,-23,44
-40,-23,44
-40,-23,44
-40,-23,44
-40,-23,44
-40,-22,44
-40,-22,45
-40,-23,45
-40,-23,44
-40,-22,44
-40,-23,44
-40,-23,44
-40,-23,44
-40,-23,44
-40,-23,44
-40,-22,44
-40,-23,44
-40,-23,44
-40,-23,45
-40,-22,45
-40,-23,44
-40,-23,44
-40,-23,44
-40,-23,44
-39,-23,45
-40,-23,45
-40,-23,44
-40,-23,44
-40,-23,44
-40,-23,45
-40,-23,44
-40,-23,44
-40,-22,44
-40,-23,44
-40,-23,45
-40,-23,44
-40,-23,45
-40,-23,45
-40,-23,44
-40,-23,44
-40,-23,44
-40,-22,44
-40,-23,44
-40,-23,45
-40,-23,45
-40,-23,45
-40,-23,45
-40,-23,44
-40,-23,44
-40,-23,45
-40,-23,45
-40,-23,44
-40,-23,45
-40,-23,44
-40,-23,44
-40,-22,44
-40,-23,44
-40,-23,45
-40,-23,45
-40,-22,44
-40,-23,45
-40,-23,45
-40,-23,45
-40,-23,45
-39,-22,45
-40,-22,45
-40,-22,45
-40,-22,45
-40,-22,44
-39,-23,45
-40,-23,44
-38,-22,46
-38,-22,46
-40,-22,45
-41,-22,44
-39,-22,45
-40,-22,45
-39,-22,45
-39,-22,44
-40,-22,45
-39,-22,45
-40,-22,45
-40,-23,45
-40,-22,45
-40,-22,45
-40,-23,45
-39,-22,45
-40,-22,45
-40,-23,45
-40,-22,45
-39,-23,45
-40,-22,45
-40,-22,45
-40,-23,44
-39,-23,45
-39,-23,45
-39,-22,45
-39,-22,45
-40,-22,45
-39,-22,45
-39,-23,45
-39,-22,45
-40,-22,45
-39,-22,45
-39,-22,45
-40,-22,45
-40,-23,45
-39,-23,45
-40,-23,45
-40,-22,45
-40,-23,45
-40,-22,45
-39,-23,45
-39,-22,45
-39,-22,45
-39,-23,45
-39,-22,45
-39,-22,45
-39,-22,45
-40,-22,45
-40,-23,45
-39,-23,45
-40,-22,45
-40,-22,45
-40,-23,45
-39,-22,45
-39,-22,45
-40,-22,45
-40,-22,45
-39,-22,45
-39,-22,45
-40,-22,45
-39,-22,45
-40,-22,45
-40,-22,45
-40,-22,45
-40,-22,45
-40,-22,45
-40,-22,45
-40,-22,45
-40,-22,45
-40,-22,45
-40,-22,44
-40,-22,44
-40,-22,45
-39,-22,45
-40,-22,45
-40,-22,45
-40,-22,45
-40,-22,45
-40,-22,45
-39,-22,45
-40,-22,45
-39,-22,45
-39,-22,45
-39,-22,45
-40,-22,45
-40,-22,45
-40,-22,45
-40,-22,45
-40,-22,45
-40,-22,45
-39,-22,45
-39,-22,45
-40,-22,45
-40,-22,45
-40,-22,45
-39,-22,45
-40,-22,45
-39,-22,45
-40,-22,45
-40,-22,45
-39,-23,45
-39,-22,45
-40,-22,45
-40,-22,44
-40,-22,45
-40,-23,45
-41,-23,45
-38,-21,46
-40,-22,44
-42,-24,42
-37,-23,47
-36,-21,48
-39,-22,45
-40,-23,45
-36,-22,47
-40,-22,45
-40,-21,44
-39,-22,45
-39,-22,46
-39,-22,45
-40,-22,45
-39,-22,45
-39,-22,45
-39,-22,46
-39,-22,45
-39,-22,45
-39,-22,46
-39,-22,45
-39,-22,46
-39,-22,46
-39,-22,46
-39,-22,45
-39,-22,46
-39,-22,45
-39,-22,45
-39,-22,46
-39,-22,45
-39,-22,45
-39,-22,45
-39,-22,46
-39,-22,45
-39,-22,45
-40,-22,45
-39,-22,45
-39,-22,46
-39,-22,45
-39,-22,45
-39,-22,45
-39,-22,46
-39,-22,46
-39,-22,45
-39,-22,45
-39,-22,45
-39,-22,45
-39,-22,45
-39,-22,45
-39,-22,45
-40,-22,45
-39,-22,45
-38,-23,47
-41,-23,47
-42,-24,48
-47,-20,40
-39,-7,52
-44,-9,52
-52,1,61
-48,-8,46
-34,-12,44
-34,-17,38
-20,-22,39
-23,-24,40
-23,-31,44
-19,-33,49
-15,-38,44
-30,-33,48
-31,-33,48
-26,-28,38
-35,-26,31
-59,-27,23
-68,-24,27
-62,-26,30
-62,-24,26
-67,-23,23
-62,-19,25
-58,-19,21
-57,-16,13
-56,-12,14
-61,-11,12
-61,-12,19
-60,-12,18
-65,-16,12
-67,-15,12
-63,-14,11
-61,-14,11
-66,-13,12
-61,-15,11
-63,-17,8
-61,-15,5
-61,-12,4
-59,-7,17
-65,-15,6
-68,-18,0
-57,-12,14
-57,-12,18
-62,-13,13
-62,-14,12
-63,-13,13
-60,-12,16
-59,-12,16
-61,-11,15
-61,-12,15
-62,-13,16
-62,-13,15
-60,-13,15
-60,-12,16
-61,-13,16
-61,-13,15
-60,-12,16
-60,-13,16
-60,-13,16
-61,-13,15
-61,-13,15
-61,-13,15
-60,-12,16
-60,-13,16
-61,-13,15
-61,-13,16
-61,-13,15
-59,-12,16
-61,-13,16
-61,-13,15
-60,-13,15
-61,-13,15
-60,-13,15
-60,-12,16
-61,-13,15
-61,-13,15
-60,-12,16
-60,-13,15
-59,-13,16
-61,-13,15
-61,-13,14
-60,-13,15
-60,-12,16
-60,-13,16
-60,-13,16
-61,-13,15
-60,-12,15
-60,-13,16
-60,-13,15
-60,-13,15
-60,-13,15
-60,-13,15
-60,-12,16
-60,-13,15
-60,-13,15
-60,-13,15
-60,-12,15
-59,-12,16
-59,-13,16
-59,-13,16
-61,-13,13
-62,-12,12
-61,-13,10
-60,-13,11
-61,-12,9
-63,-12,6
-64,-12,5
-63,-12,4
-63,-12,3
-63,-12,2
-62,-11,3
-63,-10,7
-62,-10,8
-62,-10,8
-62,-11,8
-62,-12,7
-64,-14,7
-65,-13,7
-63,-11,8
-62,-9,11
-61,-10,11
-62,-11,9
-62,-12,8
-62,-13,8
-62,-13,8
-62,-12,8
-62,-12,8
-62,-12,8
-62,-11,9
-63,-11,8
-62,-11,9
-61,-11,9
-62,-11,9
-62,-11,8
-62,-11,8
-62,-12,8
-61,-12,9
-63,-11,8
-62,-11,8
-62,-11,10
-62,-11,9
-62,-11,9
-62,-11,9
-62,-11,9
-62,-11,9
-62,-11,9
-62,-11,8
-62,-11,8
-62,-11,8
-62,-11,9
-62,-11,8
-62,-11,8
-62,-11,9
-62,-11,8
-63,-11,8
-62,-11,9
-62,-11,8
-62,-11,8
-62,-11,8
-62,-11,9
-62,-11,8
-62,-11,9
-62,-11,8
-62,-11,8
-62,-11,8
-62,-11,8
-62,-11,9
-62,-11,9
-62,-11,9
-62,-11,8
-62,-11,8
-62,-11,8
-62,-11,9
-62,-11,8
-62,-11,8
-62,-11,8
-62,-11,8
-62,-11,8
-62,-11,9
-63,-11,8
-64,-11,7
-64,-11,9
-69,-12,14
-69,-14,13
-65,-21,11
-66,-22,1
-69,-18,-1
-58,-17,-5
-57,-13,1
-57,-10,3
-55,-11,2
-55,-12,4
-59,-10,8
-57,-12,8
-60,-15,7
-62,-14,7
-64,-16,6
-58,-16,8
-58,-15,5
-63,-14,8
-65,-16,3
-61,-19,3
-60,-20,3
-59,-18,6
-61,-18,4
-62,-18,4
-61,-17,6
-61,-16,8
-63,-17,5
-60,-17,5
-59,-17,7
-62,-17,6
-61,-17,6
-61,-17,5
-61,-17,5
-61,-17,5
-61,-18,5
-61,-18,6
-61,-17,6
-60,-17,6
-61,-17,5
-62,-17,5
-62,-17,6
-61,-17,7
-61,-17,6
-62,-17,5
-62,-17,5
-61,-17,6
-61,-17,6
-62,-17,5
-61,-17,5
-61,-17,5
-61,-17,5
-61,-17,5
-61,-17,5
-59,-17,7
-63,-17,4
-59,-17,6
-61,-16,6
-65,-18,2
-61,-17,5
-60,-17,6
-62,-17,5
-61,-16,5
-61,-17,5
-61,-17,6
-61,-17,6
-61,-17,5
-62,-17,4
-61,-18,6
-61,-17,6
-61,-17,5
-61,-17,5
-61,-17,5
-61,-17,6
-61,-17,6
-61,-17,5
-61,-17,5
-61,-17,5
-60,-17,6
-62,-17,5
-61,-17,5
-61,-17,5
-61,-18,5
-61,-18,5
-61,-18,6
-61,-17,6
-61,-17,5
-61,-17,6
-61,-18,5
-61,-17,6
-61,-17,5
-61,-18,5
-62,-18,5
-61,-17,5
-61,-17,5
-61,-17,5
-61,-17,5
-61,-17,5
-61,-17,5
-61,-17,5
-61,-17,5
-61,-17,5
-61,-17,5
-61,-17,5
-61,-17,5
-61,-17,5
-61,-17,5
-61,-18,5
-61,-18,5
-61,-17,6
-62,-18,5
-61,-18,5
-61,-18,4
-61,-17,5
-60,-16,7
-62,-17,3
-62,-16,6
-58,-19,4
-56,-16,7
-65,-16,5
-61,-19,4
-58,-18,4
-61,-17,3
-61,-17,3
-61,-17,6
-61,-17,6
-59,-17,5
-64,-17,5
-62,-18,4
-60,-17,5
-61,-17,4
-62,-17,4
-61,-17,4
-61,-17,5
-62,-17,5
-62,-17,4
-60,-17,5
-61,-18,5
-61,-17,5
-61,-17,4
-61,-17,5
-61,-17,5
-61,-18,5
-61,-17,5
-61,-17,5
-61,-18,4
-61,-18,5
-61,-17,5
-61,-18,4
-61,-17,4
-61,-17,5
-61,-17,5
-60,-17,5
-62,-18,5
-62,-18,5
-60,-17,6
-61,-17,5
-62,-17,5
-61,-17,5
-61,-17,5
-61,-17,5
-62,-17,5
-61,-18,5
-61,-17,6
-61,-17,5
-61,-17,5
-61,-18,5
-61,-18,5
-61,-17,5
-61,-17,5
-62,-18,5
-60,-17,6
-61,-18,5
-61,-17,6
-61,-17,5
-61,-18,5
-61,-18,5
-61,-17,6
-61,-17,5
-61,-17,5
-61,-18,5
-61,-18,5
-61,-17,5
-61,-18,5
-61,-18,5
-61,-18,5
-61,-17,5
-61,-17,5
-61,-17,5
-61,-18,5
-61,-17,5
-61,-17,5
-61,-17,5
-61,-17,5
-61,-17,5
-61,-17,5
-61,-17,5
-61,-18,5
-61,-17,5
-61,-17,5
-61,-18,5
-61,-18,5
-61,-17,5
-61,-17,5
-61,-17,5
-61,-18,4
-61,-18,5
-61,-18,5
-61,-18,5
-62,-17,5
-61,-17,5
-61,-18,5
-61,-18,5
-61,-18,5
-61,-17,5
-61,-17,5
-61,-17,5
-61,-18,5
-61,-18,5
-61,-17,5
-61,-18,5
-61,-17,5
-61,-17,5
-61,-17,5
-61,-18,5
-61,-17,5
-61,-18,5
-61,-18,4
-61,-17,5
-61,-18,5
-61,-17,5
-60,-18,5
-61,-17,5
-62,-17,5
-61,-17,5
-61,-18,5
-61,-18,5
-61,-17,5
-61,-18,5
-61,-17,5
-61,-17,5
-61,-17,5
-62,-17,5
-61,-18,5
-61,-17,5
-61,-17,5
-61,-17,5
-61,-17,5
-61,-18,5
-61,-18,5
-61,-17,5
-61,-17,5
-61,-18,5
-61,-17,5
-61,-17,5
-61,-18,5
-61,-17,5
-61,-17,5
-61,-17,5
-61,-17,5
-61,-17,5
-61,-17,5
-61,-17,5
-61,-17,5
-61,-17,5
-61,-17,5
-61,-18,5
-61,-17,5
-61,-17,5
-61,-17,5
-61,-17,5
-61,-17,5
-61,-17,5
-61,-17,5
-61,-17,5
-61,-18,5
-61,-18,5
-61,-17,5
-61,-17,5
-61,-17,5
-61,-17,5
-61,-17,5
-61,-17,5
-61,-17,5
-61,-17,5
-61,-17,5
-61,-17,5
-61,-17,5
-61,-17,5
-61,-17,5
-61,-17,5
-61,-17,5
-61,-17,5
-61,-17,5
-61,-17,5
-61,-17,5
-61,-18,5
-61,-17,5
-61,-17,4
-61,-18,4
-61,-18,5
-61,-17,5
-61,-17,5
-61,-17,5
-61,-18,5
-61,-17,5
-61,-17,5
-61,-17,5
-61,-17,5
-61,-17,4
-61,-17,5
-61,-17,5
-61,-18,4
-61,-17,5
-61,-17,5
-61,-17,5
-61,-17,5
-61,-17,5
-61,-17,4
-61,-17,4
-61,-18,4
-61,-19,3
-65,-15,6
-60,-16,5
-62,-17,5
-61,-18,3
-61,-18,3
-62,-17,6
-62,-17,6
-62,-17,4
-60,-17,4
-60,-18,4
-63,-16,4
-64,-16,6
-59,-17,6
-60,-18,3
-61,-18,4
-62,-17,4
-61,-17,5
-61,-17,5
-62,-17,4
-61,-18,4
-61,-18,4
-61,-18,3
-60,-17,5
-61,-17,6
-62,-17,4
-63,-16,3
-55,-17,7
-56,-17,7
-71,-16,3
-57,-19,2
-57,-16,7
-63,-17,3
-62,-18,2
-61,-18,5
-60,-16,5
-62,-17,4
-62,-17,3
-61,-17,4
-61,-17,4
-61,-17,4
-62,-17,4
-61,-17,4
-61,-17,4
-61,-17,4
-61,-17,4
-61,-17,4
-61,-17,5
-61,-17,4
-61,-17,4
-60,-17,5
-61,-17,4
-62,-17,4
-61,-17,5
-61,-17,4
-61,-17,4
-61,-17,4
-61,-17,4
-61,-17,4
-61,-17,4
-61,-17,4
-61,-17,4
-61,-17,4
-61,-17,4
-61,-17,4
-61,-17,4
-61,-17,5
-61,-17,4
-61,-18,4
-61,-17,4
-61,-17,5
-61,-17,4
-61,-17,4
-61,-17,4
-61,-17,4
-61,-18,4
-61,-17,4
-61,-17,4
-61,-17,4
-61,-18,4
-61,-17,4
-62,-17,4
-62,-17,4
-61,-17,5
-61,-17,4
-61,-17,5
-61,-17,4
-61,-17,4
-61,-17,4
-61,-18,4
-61,-18,3
-62,-18,4
-62,-18,4
-61,-18,2
-59,-18,2
-60,-18,3
-58,-15,5
-60,-16,5
-64,-15,3
-65,-15,1
-61,-15,3
-61,-16,5
-63,-17,3
-62,-19,2
-63,-18,2
-64,-17,1
-65,-17,0
-62,-21,-2
-65,-22,-2
-60,-17,1
-59,-18,1
-58,-19,1
-58,-19,-2
-59,-20,-1
-61,-20,1
-59,-19,0
-61,-19,-3
-58,-22,-4
-56,-21,-1
-61,-19,-2
-58,-21,-4
-54,-24,-3
-61,-24,-5
-61,-26,-6
-58,-28,-8
-57,-29,-10
-56,-32,-14
-59,-31,-13
-58,-30,-13
-57,-33,-14
-57,-33,-14
-58,-29,-15
-57,-27,-15
-55,-26,-18
-55,-25,-18
-56,-23,-18
-55,-24,-16
-54,-24,-16
-56,-24,-15
-55,-25,-15
-55,-26,-14
-55,-26,-12
-56,-26,-12
-56,-27,-13
-58,-28,-12
-62,-26,-10
-62,-26,-12
-59,-25,-12
-58,-24,-10
-57,-24,-9
-56,-25,-8
-57,-25,-8
-59,-25,-10
-59,-25,-8
-57,-25,-8
-57,-26,-9
-58,-26,-9
-57,-25,-9
-58,-24,-9
-58,-24,-8
-58,-24,-7
-59,-24,-7
-58,-23,-6
-58,-24,-6
-59,-24,-6
-59,-24,-6
-58,-24,-7
-58,-24,-8
-59,-25,-8
-58,-23,-5
-57,-23,-5
-60,-23,-5
-62,-22,-8
-58,-21,-7
-57,-24,-9
-60,-24,-12
-58,-22,-8
-55,-23,-7
-61,-24,-11
-59,-23,-11
-58,-22,-10
-56,-22,-10
-56,-23,-9
-59,-24,-12
-61,-24,-12
-57,-23,-9
-58,-22,-8
-62,-22,-11
-66,-24,-11
-70,-23,-9
-78,-26,-12
-73,-27,-7
-63,-27,2
-52,-30,10
-56,-29,17
-55,-29,30
-59,-30,38
-42,-33,56
-61,-46,42
-58,-52,34
-44,-53,40
-35,-55,36
-25,-53,31
-19,-47,30
-19,-38,34
-22,-32,38
-37,-26,23
-34,-15,36
-37,-12,36
-21,-14,46
-30,-12,45
-24,-15,51
-8,-20,58
-17,-19,52
-34,-22,47
-26,-23,50
-15,-24,50
-38,-24,43
-11,-29,63
-33,-23,54
-41,-19,49
-41,-17,48
-41,-13,55
-29,-16,56
-24,-20,53
-18,-24,40
-10,-33,37
-2,-35,40
-2,-42,45
-1,-43,48
-10,-43,52
-12,-45,52
-16,-44,49
-18,-40,56
-19,-41,53
-23,-37,50
-27,-33,55
-28,-29,58
-34,-27,55
-33,-24,58
-28,-23,63
-29,-22,62
-31,-18,58
-33,-18,56
-46,-20,51
-22,-22,58
-37,-22,49
-44,-21,40
-40,-23,45
-40,-25,43
-45,-24,28
-54,-28,0
-51,-27,5
-54,-24,6
-61,-22,1
-55,-22,2
-57,-13,12
-52,-12,16
-47,-19,16
-74,-7,20
-55,-6,26
-27,1,39
-54,10,39
-63,19,48
-52,19,41
-46,30,65
-58,33,87
-46,19,73
-37,0,44
-21,-1,56
-36,-8,44
-36,-10,32
-28,-13,28
-63,-18,23
-72,-14,57
-69,4,2
-107,-9,-30
-50,4,44
-68,12,43
-72,11,37
-32,-3,34
-28,-1,45
-50,-14,29
-52,-18,23
-59,-18,22
-58,-14,31
-55,-12,34
-47,-11,32
-49,-9,30
-58,-10,28
-56,-9,29
-53,-11,28
-57,-10,29
-59,-11,30
-58,-10,28
-57,-10,27
-55,-10,29
-56,-10,27
-57,-9,26
-57,-9,27
-57,-10,27
-57,-10,27
-58,-10,27
-60,-12,24
-61,-11,24
-61,-11,22
-62,-15,17
-69,-13,13
-46,-7,40
-49,-12,32
-51,-10,31
-55,-6,36
-59,-6,31
-57,-6,33
-61,-8,30
-30,-13,52
-8,-11,56
-69,-8,16
-74,-13,17
-66,-17,22
-51,-23,29
-53,-18,31
-55,-11,34
-53,-8,35
-50,-8,34
-55,-10,28
-57,-12,27
-56,-15,29
-56,-16,29
-56,-14,30
-55,-10,30
-55,-9,31
-61,-2,34
-68,5,35
-83,20,40
-77,16,43
-68,-6,35
-38,-24,28
-36,-32,20
-43,-46,9
-46,-49,7
-42,-47,9
-43,-41,12
-60,-38,11
-57,-48,11
-43,-47,18
-42,-47,24
-45,-43,26
-26,-35,29
-23,-34,36
-37,-19,48
-43,-16,43
-36,-11,43
-34,-8,41
-31,-11,44
-23,-5,62
-11,0,60
-21,7,56
-34,1,63
-46,-8,53
-19,-23,73
-26,-24,68
-34,-32,61
-34,-30,59
-31,-28,53
-29,-22,47
-26,-15,54
-45,1,46
-47,4,42
-43,5,35
-49,3,32
-49,4,37
-65,-11,12
-71,-10,4
-65,-10,22
-61,-7,29
-61,-9,28
-56,-12,22
-55,-11,15
-81,-7,14
-62,-14,16
-68,-12,15
-70,-14,14
-67,-20,13
-64,-24,4
-56,-22,4
-50,-18,18
-53,-20,17
-51,-24,15
-45,-20,22
-45,-20,33
-57,-18,26
-55,-16,21
-59,-17,19
-60,-18,16
-53,-20,11
-61,-17,22
-56,-17,23
-59,-19,10
-58,-18,11
-56,-18,13
-60,-17,11
-62,-19,8
-61,-17,17
-61,-17,16
-63,-16,14
-61,-15,13
-60,-16,13
-59,-17,10
-62,-16,9
-60,-16,9
-61,-15,10
-66,-15,10
-68,-15,6
-67,-18,5
-69,-17,2
-64,-16,14
-44,-17,31
-42,-18,30
-44,-16,20
-53,-13,15
-65,-10,17
-60,1,30
-57,-1,28
-70,-6,20
-63,-12,23
-48,-23,21
-51,-27,8
-54,-42,-20
-53,-38,-34
-64,-31,-40
-64,-24,-14
-59,-19,-6
-70,-19,-19
-66,-16,-12
-80,-9,-6
-62,-18,-8
-46,-14,17
-83,-15,-3
-74,-13,2
-44,-20,9
-52,-26,2
-63,-18,8
-58,-18,29
-68,-17,32
-49,-18,36
-59,-15,36
-60,-12,29
-57,-13,26
-52,-15,19
-50,-20,0
-46,-20,-10
-45,-22,-24
-41,-22,-24
-32,-20,-23
-47,-14,-25
-53,-16,-26
-54,-20,-16
-52,-19,-4
-56,-22,5
-61,-27,-1
-70,-24,-12
-102,-13,-31
-95,-12,-30
-70,12,25
-100,2,-22
-53,-21,-9
-56,-14,-6
-63,-11,-25
-65,-11,-32
-58,-11,-22
-62,-12,-29
-63,-13,-21
-48,-10,1
-65,-9,-4
-56,-7,3
-56,-3,-4
-63,0,-2
-57,6,5
-59,5,7
-70,2,-4
-71,1,-4
-69,1,-4
-63,2,-5
-64,-1,-12
-65,6,-3
-60,9,-6
-62,9,-11
-59,8,-13
-62,6,-15
-60,5,-10
-63,4,-9
-70,7,-10
-74,7,-12
-64,7,-6
-62,9,-1
-56,11,1
-67,11,-8
-63,13,-14
-61,9,-6
-56,8,-5
-48,6,1
-56,5,14
-48,8,11
-80,8,-6
-77,13,-8
-63,12,-7
-75,8,-11
-43,14,8
-65,11,4
-37,41,41
-24,24,34
-59,21,-1
-120,59,-13
-35,39,61
-52,46,17
-47,35,30
-50,34,16
-35,34,19
-33,39,26
-44,43,34
-32,36,45
-42,42,41
-42,37,39
-38,38,40
-26,32,42
-34,24,37
-39,24,36
-44,23,28
-47,27,30
-43,35,34
-50,37,40
-43,31,40
-38,36,34
-37,42,36
-43,36,38
-37,33,40
-33,34,32
-38,39,34
-39,36,36
-34,35,38
-31,34,43
-38,32,33
-31,33,34
-41,38,50
-35,37,41
-35,40,21
-35,46,40
-37,49,42
-52,47,19
-51,44,24
-41,31,16
-41,32,7
-58,30,12
-52,30,12
-54,29,16
-56,32,13
-57,30,10
-55,32,14
-56,31,14
-56,28,10
-51,28,10
-51,28,9
-56,28,13
-63,27,12
-63,23,11
-55,24,13
-53,23,11
-64,21,7
-69,23,8
-60,39,13
-59,28,7
-54,23,7
-62,21,6
-65,22,6
-70,25,12
-68,29,14
-62,35,18
-64,37,17
-66,33,26
-40,25,28
-47,24,20
-52,24,19
-45,22,25
-60,11,2
-62,10,-1
-47,6,9
-59,8,13
-51,7,23
-49,15,34
-38,19,36
-40,33,36
-38,41,38
-35,57,35
-66,73,19
-51,72,26
-36,57,36
-39,51,36
-27,34,41
-31,23,35
-26,14,20
-35,23,16
-30,28,23
-50,48,26
-62,48,19
-50,55,29
-67,51,25
-60,48,26
-47,34,18
-36,32,21
-28,32,29
-22,33,42
-38,33,37
-39,33,33
-42,33,35
-46,33,32
-41,34,35
-34,34,40
-29,35,43
-39,35,36
-45,36,31
-41,35,33
-44,34,34
-43,33,33
-40,34,35
-40,35,35
-41,35,35
-40,35,36
-39,34,37
-41,34,35
-43,34,34
-46,33,32
-40,35,36
-41,35,34
-44,34,32
-44,35,33
-41,34,34
-42,35,33
-44,35,32
-43,34,35
-42,33,33
-45,34,32
-44,34,32
-42,35,33
-43,35,33
-42,35,33
-40,35,34
-42,35,33
-42,34,35
-41,34,34
-43,34,33
-45,34,34
-43,32,34
-44,34,34
-43,33,33
-41,33,37
-40,33,37
-41,32,37
-43,32,35
-43,33,35
-42,34,34
-43,33,34
-44,32,34
-44,32,34
-43,32,35
-44,32,34
-44,32,34
-44,32,34
-44,32,33
-44,32,34
-43,32,34
-43,33,34
-44,33,33
-43,32,35
-43,32,35
-43,31,35
-45,30,34
-45,31,34
-45,32,34
-44,32,35
-43,32,35
-47,31,32
-45,31,32
-42,32,36
-42,32,35
-49,35,37
-50,30,31
-51,29,32
-41,27,36
-38,28,37
-39,29,38
-32,32,44
-35,32,43
-47,28,35
-46,27,36
-42,28,39
-41,28,39
-45,29,36
-46,28,35
-44,28,36
-43,27,37
-44,29,38
-43,28,35
-46,28,36
-46,27,35
-44,28,36
-45,29,37
-44,28,36
-44,29,37
-46,28,35
-46,28,34
-46,29,35
-45,28,35
-45,28,35
-45,28,37
-45,27,36
-45,28,36
-44,28,37
-44,28,37
-38,27,40
-38,29,40
-39,32,40
-40,31,39
-44,32,36
-54,31,31
-56,31,29
-52,29,32
-50,28,30
-54,24,25
-50,23,20
-51,23,6
-53,21,0
-45,23,-1
-70,26,-4
-54,34,10
-56,32,-18
-66,39,-7
-59,48,18
-68,39,-7
-74,38,-1
-19,22,6
-8,17,13
-42,32,38
-58,20,15
-62,44,13
-30,37,39
-19,31,32
-20,54,47
-23,64,66
-33,57,44
-30,53,57
-10,50,66
-41,28,2
-25,33,23
-12,30,55
-22,30,47
-30,34,36
-20,36,39
-16,35,53
-9,28,38
-14,32,27
-17,42,14
-38,52,5
-72,48,7
-38,49,13
-45,53,14
-41,58,-2
-50,61,-11
-26,70,10
-12,69,19
-17,67,32
42,66,62
5,63,38
-31,64,23
-26,59,19
-36,56,14
-13,57,30
-4,54,23
-17,58,30
-12,57,31
-18,58,30
-19,55,32
-22,55,26
-9,54,23
-3,54,23
-9,57,26
-9,59,33
-20,62,29
-29,66,34
0,58,23
-20,58,25
-21,57,24
-11,57,24
-10,58,22
-8,60,32
-7,58,28
-13,57,28
-7,59,29
-8,59,31
17,57,39
-12,58,30
-28,57,44
-20,55,43
-17,58,46
4,52,3
-19,52,-3
-64,55,13
-25,48,46
-26,50,40
-19,52,25
-28,54,19
-27,53,26
-21,50,25
-3,45,35
-6,47,41
-21,53,46
-26,51,35
-24,52,32
-19,51,35
-21,50,35
-28,44,36
-33,42,36
-30,40,30
-26,43,34
-29,46,37
-18,49,39
-19,49,38
-27,45,38
-23,44,35
-26,44,36
-21,45,39
-19,46,36
-24,47,41
-31,44,34
-29,47,33
-25,53,44
-32,52,43
-32,55,40
-30,54,47
-35,59,52
-22,59,56
-32,50,34
-53,25,15
-34,16,23
3,-9,34
-26,-19,5
-12,2,8
-10,28,22
-36,54,40
-30,71,26
-37,78,20
-40,70,37
-33,63,31
-52,59,26
-36,60,33
-27,61,26
-31,59,19
-36,61,22
-49,68,25
-51,71,27
-47,78,26
-46,78,26
-42,72,26
-44,66,15
-46,64,17
-47,66,25
-49,67,39
-26,60,90
13,17,107
28,6,93
4,-4,13
-42,-21,-28
-29,-65,-50
9,-69,-41
13,-72,14
-63,-42,18
-30,-48,16
-9,-1,42
-61,0,38
-127,10,12
-13,2,68
-33,-11,51
-63,-20,21
-71,-18,17
-32,-18,33
-35,-18,43
-79,-26,22
-73,-19,21
-36,-8,42
-83,-15,13
-101,-25,22
-68,-22,27
-48,-25,30
-23,-39,35
-24,-43,33
-34,-42,27
-86,-47,-25
-82,-37,-22
-25,-17,25
-48,-4,27
-45,5,16
-26,20,47
-34,41,100
41,36,127
-25,9,61
0,-7,47
-21,-6,41
-21,6,67
-14,4,64
-15,2,56
-13,9,46
-22,4,53
-69,-4,9
-77,2,3
-78,10,3
-77,24,11
-79,19,14
-45,4,55
-55,-7,19
-75,-31,-2
-47,-14,57
-46,-11,86
-44,8,13
11,-14,78
-75,-41,35
-65,-34,44
-51,-28,36
89,-24,127
-128,-77,-72
61,-19,78
-15,-28,70
39,-15,88
0,-40,58
-59,-36,8
-22,-34,38
-47,-44,35
-24,-41,22
-17,-33,21
-38,-61,-27
-26,-63,-14
-7,-30,17
-44,-17,10
-47,-5,33
-60,0,4
-15,5,30
-25,4,28
-22,-3,33
-39,-9,8
-56,-20,52
-56,-18,75
-103,-35,31
-86,-34,33
-47,-6,55
-51,5,45
-40,16,32
-59,46,30
-49,57,32
-45,60,30
-51,72,40
-40,70,39
-44,54,30
-42,46,31
-7,50,41
-4,60,56
-33,56,45
-36,53,35
-77,43,-7
-50,40,5
-46,41,8
-53,42,9
-52,44,7
-50,45,6
-41,43,8
-48,46,3
-54,48,0
-48,52,-4
0,41,35
-36,44,35
-95,51,-3
-85,44,-11
-70,44,-10
-20,58,58
-25,46,14
-45,32,39
-37,19,32
-24,15,41
-41,28,28
-20,44,25
-37,41,8
-55,55,1
-44,38,22
-44,44,32
-64,26,32
-62,24,18
-57,25,13
-30,25,41
-70,28,28
-65,34,28
-40,25,32
-44,27,31
-49,33,38
-34,34,43
-27,31,49
-30,32,47
-32,32,36
-31,40,34
-65,30,17
-59,17,28
-59,22,31
-57,26,52
-48,30,49
-42,29,27
-35,15,24
-47,26,18
-55,41,22
-48,40,15
-47,31,-7
-59,29,-20
-50,24,-18
-47,31,7
-61,43,17
-68,56,30
-58,49,16
-70,48,8
-89,44,9
-35,37,28
-31,38,39
-61,27,13
-31,26,20
-39,17,13
-56,15,15
-63,19,24
-55,27,16
-36,34,30
-43,26,20
-49,24,12
-39,17,20
-49,35,25
-48,46,29
-32,74,44
-54,73,18
-61,64,7
-55,45,5
-55,29,13
-66,41,-4
-50,63,30
-45,66,39
-57,51,16
-62,43,6
-50,33,-9
-25,13,-14
-55,6,-2
-61,15,23
-80,9,-8
-15,3,9
-20,10,21
-19,18,70
-1,36,105
-5,26,49
-38,42,49
-20,42,65
-23,44,52
-26,46,54
-42,36,48
-34,31,49
-37,22,44
-30,19,48
-32,13,44
-22,16,41
-22,19,45
-24,26,58
-35,31,49
-35,34,48
-20,24,51
-21,20,56
-36,20,53
-34,24,52
-38,33,39
-16,29,48
-6,27,62
-12,37,78
-42,39,68
-51,48,75
-48,51,64
-34,27,46
-25,-11,32
-26,-33,22
16,-29,18
25,-13,35
5,22,61
7,24,69
-17,47,63
-31,56,55
-31,52,49
-38,59,42
-48,57,55
-72,58,67
-66,63,59
-59,52,35
-18,28,54
-13,9,44
3,-18,17
13,-32,6
-33,-36,9
-1,-7,27
-5,27,32
-99,34,19
-70,60,52
-50,112,57
-35,115,43
-14,76,29
-31,39,45
-31,28,34
-13,27,28
-19,39,28
-19,42,31
-22,46,37
-39,71,47
-36,90,47
-24,81,42
-24,78,60
-20,75,69
-25,75,40
-39,75,25
-14,70,43
-20,68,9
-26,48,-3
-39,2,-6
-43,-24,-17
-13,-70,-11
-79,-50,-21
-80,-13,-36
33,4,55
-1,15,31
-8,61,44
10,88,51
-13,88,-16
-116,76,-29
-43,74,31
-5,66,50
-27,71,44
-40,54,28
-39,59,15
-28,59,-6
-24,67,-3
-29,62,-11
-37,50,-35
-50,51,-48
-48,50,-42
-22,51,-26
-18,62,10
-34,61,1
-57,58,-4
-46,62,-3
-1,71,12
-29,56,-10
-28,61,14
-65,59,-24
-24,54,8
-25,54,-1
-36,53,-8
-21,52,3
-19,62,42
-69,82,26
-67,94,14
-86,92,11
-61,78,21
-42,101,49
-36,75,38
-12,-73,-128
127,-7,79
13,-13,4
-111,22,-17
-108,17,-22
-61,24,19
-55,29,10
-68,26,3
-38,31,26
-62,28,21
-50,18,23
-49,17,23
-40,28,64
-21,13,70
-40,32,52
-113,25,-13
-83,2,-30
3,-17,10
-14,-8,13
-86,13,9
-46,24,50
-35,44,94
-31,48,41
-14,52,50
-9,56,97
-4,44,73
11,37,49
-17,41,48
-81,25,27
-43,25,49
-27,22,40
-51,19,35
-53,29,52
-44,30,42
-48,25,31
-26,25,39
-27,18,35
-29,19,40
-37,16,47
-39,17,49
-38,23,53
-43,34,51
-50,40,51
-54,58,58
-48,64,62
-40,66,69
-26,47,76
-30,42,68
-7,36,86
-1,36,90
-13,34,76
-25,33,65
-40,26,41
-40,12,25
-39,3,20
-37,-10,15
-32,-14,17
-19,-16,27
-16,-17,30
-16,-16,27
-11,-22,24
-5,-23,15
-18,-19,-8
-21,-8,-7
9,22,28
4,36,52
-22,37,115
-33,40,117
-32,38,101
-34,27,66
-37,25,54
-50,38,49
-37,46,58
-20,54,57
-21,48,41
-24,42,38
-38,28,33
-40,23,34
-57,18,33
-57,14,37
-58,15,38
-54,15,40
-55,16,42
-55,20,45
-51,18,45
-51,14,42
-51,11,44
-50,8,43
-47,4,44
-47,3,44
-45,-1,44
-46,-3,40
-47,-1,38
-37,-7,40
-36,-7,39
-43,-2,41
-41,-6,44
-42,-10,39
-43,-10,37
-36,-19,38
-45,-25,28
-45,-28,27
-43,-30,32
-41,-28,35
-33,-15,40
-29,-12,44
-26,-3,57
-48,1,51
-54,2,47
-55,4,41
-57,4,41
-55,5,39
-51,4,34
-54,4,35
-51,4,37
-59,2,40
-52,5,48
-70,4,27
-63,6,34
-66,-1,32
-65,0,36
-59,9,40
-57,-1,29
-53,2,23
-59,9,21
-58,15,20
-68,5,19
-35,6,33
-78,10,28
-68,11,22
-53,10,27
-54,13,24
-58,14,16
-46,20,22
-55,21,25
-55,26,27
-56,27,22
-53,29,27
-47,37,24
-45,39,26
-51,36,22
-42,40,24
-39,43,24
-42,44,23
-45,43,23
-37,48,27
-40,50,31
-39,48,22
-35,49,21
-38,48,20
-38,50,15
-37,48,14
-38,47,16
-37,47,15
-39,50,18
-37,51,22
-38,51,19
-38,52,17
-29,49,15
-24,44,8
-32,54,2
-34,61,12
-33,63,13
-27,57,9
-28,50,13
-31,48,10
-36,49,13
-64,55,17
-52,51,14
-43,47,10
-42,46,11
-38,48,3
-46,51,5
-33,50,15
-30,52,13
-39,57,12
-40,52,8
-42,53,12
-35,54,11
-33,56,14
-28,58,16
-30,57,15
-30,56,9
-33,57,9
-29,62,11
-25,63,12
-25,62,10
-20,68,7
-16,68,4
-28,69,5
-42,70,5
-59,72,0
-48,72,-2
-48,61,2
-52,28,4
-42,14,4
-13,-7,12
-32,8,24
-24,16,23
-17,33,5
-29,52,8
-35,76,2
-53,88,-5
-30,84,-7
-15,80,-8
-15,79,1
-21,66,11
-33,63,-2
-52,53,-34
-44,57,-19
-36,63,-2
-54,69,1
-53,63,-11
-12,52,11
-11,46,14
-23,44,16
-40,43,13
-36,49,30
-14,55,23
-9,60,15
-41,68,-1
-41,67,-18
-54,69,11
-47,78,17
-58,84,12
-58,109,23
-79,112,14
-84,75,-43
-63,35,-35
-7,-45,-68
73,-18,9
36,-6,24
-112,28,-20
-116,30,-12
-47,25,23
-37,28,25
-50,31,12
-52,33,11
-59,32,8
-55,25,6
-29,31,21
-32,39,34
-45,36,30
-58,34,4
-64,25,0
-52,26,3
-69,10,-18
-60,1,-23
-41,0,-35
-29,10,-15
-47,55,34
-57,57,15
-69,60,-6
-57,80,4
-30,77,18
-38,62,22
-47,68,9
-43,60,25
-25,75,68
-19,78,83
15,77,21
-62,76,-39
-128,11,-76
52,13,30
69,11,33
-82,23,-6
-58,13,11
-54,25,38
-45,31,33
-112,13,-16
-4,-3,-9
14,-14,2
-17,-7,15
-11,9,33
-55,59,7
-72,82,32
-70,87,54
-57,65,40
-42,53,32
-47,40,27
-49,41,38
-38,50,0
-44,42,17
-50,38,23
-43,26,14
-41,35,4
-40,39,14
-53,41,9
-50,44,16
-52,39,9
-53,38,9
-49,36,5
-49,36,2
-48,47,4
-45,56,8
-47,77,26
-54,72,20
-48,66,14
-50,56,3
-40,43,2
-31,21,31
-36,17,39
-51,14,33
-56,13,25
-63,12,11
-49,15,14
-34,18,11
-27,46,22
-18,53,28
-49,52,3
-19,48,18
-16,45,18
-31,42,23
-35,43,26
-53,43,28
-48,47,24
-50,51,18
-50,52,16
-44,55,14
-37,58,14
-30,56,13
-32,59,10
-23,61,12
-25,70,23
-44,68,7
-45,67,12
-51,61,-7
-33,56,10
-37,58,11
-52,58,1
-51,61,3
-57,54,0
-53,48,-1
-53,40,3
-53,37,4
-50,31,5
-52,34,9
-52,37,8
-51,41,11
-50,41,14
-50,44,12
-50,40,11
-49,36,11
-54,31,12
-53,29,11
-57,24,10
-59,23,13
-62,18,9
-63,15,12
-65,15,13
-62,9,8
-59,6,9
-61,2,10
-61,-1,11
-60,-6,13
-60,-10,10
-59,-11,11
-61,-11,16
-63,-11,14
-65,-8,14
-66,-2,15
-68,4,18
-64,23,18
-55,24,17
-57,17,13
-55,16,12
-51,12,5
-51,6,5
-51,4,5
-58,3,4
-63,6,4
-68,9,7
-68,11,9
-71,17,8
-75,20,-2
-68,20,5
-60,13,5
-62,11,3
-56,8,6
-58,8,7
-59,13,7
-55,15,13
-54,13,14
-56,9,16
-56,7,17
-60,3,18
-63,2,18
-71,-5,14
-69,-8,10
-75,-7,5
-78,-8,1
-84,-11,-4
-87,-10,-5
-91,-8,-3
-93,-3,-2
-89,-9,-3
-82,-11,2
-77,-11,2
-76,-7,3
-71,-1,6
-68,2,6
-59,9,7
-54,14,1
-55,22,3
-55,33,11
-53,40,18
-49,39,23
-48,30,38
-54,28,48
-48,26,43
-45,23,34
-43,7,28
-46,0,26
-47,-14,17
-50,-33,11
-52,-43,2
-53,-54,-4
-51,-53,-3
-49,-41,-1
-48,-34,4
-53,-26,12
-62,-24,17
-67,-23,16
-71,-24,17
-78,-24,11
-83,-22,9
-84,-22,6
-90,-18,5
-84,-15,2
-82,-14,1
-81,-13,1
-81,-10,0
-73,-5,3
-67,-5,4
-53,-8,6
-42,-13,9
-40,-14,7
-39,-12,2
-42,-9,-1
-52,-2,-4
-67,13,-7
-64,19,-2
-73,18,-3
-77,19,-1
-69,19,11
-71,15,10
-77,13,5
-68,9,10
-70,12,14
-84,29,14
-75,33,16
-62,18,15
-55,12,16
-39,0,13
-30,-4,13
-31,-4,12
-37,-4,11
-43,-3,11
-67,2,13
-81,8,18
-82,7,22
-92,12,22
-92,8,18
-77,-1,11
-83,-3,4
-72,-7,11
-64,-8,4
-74,-2,-1
-64,3,3
-51,3,7
-37,1,10
-34,3,11
-36,7,11
-41,9,14
-49,11,12
-61,19,7
-65,24,8
-71,31,13
-78,28,12
-67,22,18
-77,20,14
-83,23,11
-72,19,17
-74,21,18
-73,33,18
-63,31,19
-52,18,16
-36,6,14
-31,3,13
-25,-1,15
-28,-1,14
-38,-1,16
-57,1,18
-67,1,19
-84,1,20
-89,1,21
-96,6,20
-93,7,21
-92,9,15
-78,4,15
-81,2,11
-82,14,10
-75,14,8
-58,10,12
-49,7,12
-36,6,9
-32,3,8
-36,2,7
-52,7,8
-54,12,12
-66,24,16
-67,27,19
-64,27,22
-54,19,31
-55,18,33
-61,15,29
-64,13,28
-86,27,29
-80,36,35
-64,31,29
-47,14,19
-37,8,18
-28,1,15
-26,-1,16
-32,-1,16
-43,-1,22
-53,-1,23
-74,-2,25
-80,-5,27
-91,-6,25
-91,-3,25
-96,0,22
-93,7,17
-77,2,18
-81,-3,6
-81,2,6
-74,8,9
-61,5,8
-41,5,4
-19,8,16
-19,5,13
-45,1,8
-58,-2,7
-69,-2,11
-63,0,17
-62,10,27
-65,10,26
-56,9,33
-48,3,32
-73,8,29
-86,5,33
-67,7,30
-58,13,28
-63,23,19
-56,23,17
-43,14,15
-40,7,16
-34,-3,14
-31,-8,14
-33,-6,18
-52,-5,27
-65,-4,27
-68,-11,25
-61,-13,35
-73,-12,27
-84,-9,15
-83,-7,12
-86,-9,2
-86,-10,-4
-73,-16,-7
-73,-15,-2
-89,-5,-7
-86,6,-3
-75,7,1
-48,2,7
-37,0,8
-31,-5,6
-33,-5,4
-40,-3,5
-44,2,10
-46,6,15
-55,19,15
-74,26,-4
-97,30,-10
-70,19,15
-76,13,8
-101,2,-24
-103,-2,-28
-76,3,-10
-70,6,-6
-60,6,-6
-36,-1,4
-33,-3,7
-36,-1,17
-31,-2,18
-41,-6,5
-43,-8,8
-32,-8,28
-49,-12,39
-59,-13,37
-97,-1,18
-112,-7,2
-75,0,26
-71,-7,15
-70,-8,8
-63,-19,-3
-64,-23,-2
-58,-17,4
-56,-10,4
-52,2,1
-54,6,2
-54,10,2
-55,13,-4
-56,16,-2
-63,28,-2
-66,31,-2
-73,37,-1
-69,38,1
-69,37,1
-66,31,1
-67,31,1
-69,31,1
-67,30,2
-56,26,7
-59,31,8
-60,35,7
-60,36,7
-58,32,7
-49,19,9
-48,12,9
-50,10,10
-54,6,13
-56,4,13
-59,0,13
-63,0,12
-68,3,12
-73,6,7
-75,9,5
-70,15,7
-68,15,7
-69,19,6
-69,25,5
-65,36,4
-57,35,6
-51,32,9
-47,26,9
-45,27,8
-44,31,9
-44,32,9
-44,29,6
-38,23,8
-37,19,7
-40,13,2
-40,9,2
-47,3,3
-52,0,2
-71,3,1
-72,3,14
-83,3,11
-92,12,13
-94,22,17
-83,21,22
-75,15,17
-60,7,14
-55,5,16
-53,3,15
-47,-1,13
-47,-1,12
-51,3,12
-52,6,11
-44,7,12
-53,10,8
-61,18,6
-77,41,5
-86,49,3
-85,50,3
-58,23,14
-60,12,7
-49,6,4
-52,7,3
-56,7,6
-54,5,4
-50,3,0
-49,4,2
-50,1,1
-61,3,-1
-65,7,4
-87,19,8
-87,24,12
-88,28,14
-86,28,15
-79,25,10
-61,12,9
-57,6,11
-49,-3,8
-49,-4,7
-43,-1,10
-40,-1,8
-43,0,4
-69,21,-3
-78,42,-2
-79,61,7
-83,61,4
-69,51,10
-55,25,17
-50,15,14
-44,6,6
-40,4,9
-35,-2,13
-33,-12,8
-41,-13,1
-64,2,2
-92,17,3
-106,41,3
-104,39,12
-87,25,16
-68,15,9
-63,10,7
-47,0,8
-44,-3,9
-42,0,11
-42,4,13
-54,14,10
-78,39,4
-85,55,6
-80,57,11
-86,50,8
-55,31,15
-54,12,13
-55,9,10
-43,6,12
-41,6,11
-38,3,9
-31,0,8
-37,-7,2
-65,-1,7
-73,9,8
-109,15,7
-104,19,15
-81,16,24
-78,12,17
-58,1,14
-39,-4,13
-33,-4,15
-26,-3,14
-31,-1,13
-65,23,10
-95,45,6
-111,63,0
-86,43,10
-70,28,10
-48,2,10
-40,-1,10
-33,-3,2
-33,-4,2
-40,-7,5
-58,-24,2
-73,-21,6
-110,-3,-2
-121,8,-4
-92,20,18
-77,19,23
-64,10,19
-50,4,7
-51,1,-1
-46,-8,-11
-47,-10,-14
-57,-7,-2
-72,3,-5
-78,4,-10
-107,4,-10
-106,12,-4
-90,12,-5
-79,7,-5
-69,0,-9
-56,1,-9
-57,3,-8
-54,7,-8
-51,5,-10
-49,2,-10
-50,2,-9
-54,-1,-12
-62,-3,-7
-54,-5,-6
-63,-4,-7
-71,-2,-5
-67,5,2
-79,4,-3
-81,10,0
-76,24,7
-70,28,8
-62,33,8
-63,34,9
-65,31,7
-56,24,8
-52,19,10
-48,13,14
-46,11,15
-45,11,15
-46,10,15
-45,8,14
-43,5,17
-45,4,20
-49,4,21
-51,3,20
-54,-2,17
-55,-5,16
-55,-7,16
-58,-4,15
-58,1,15
-54,11,16
-57,16,16
-70,33,19
-70,47,21
-76,61,21
-65,48,25
-61,44,25
-52,37,22
-51,35,22
-52,31,15
-51,24,13
-36,20,13
-29,11,13
-35,5,9
-21,2,12
-27,7,16
-67,29,14
-128,48,-31
-128,54,-8
-91,46,17
-69,38,25
-37,29,38
0,22,56
-10,15,34
-103,5,-13
-49,8,27
-21,-2,11
-21,-2,7
-17,20,13
-12,48,27
-65,97,6
-81,95,2
-66,80,9
-54,47,9
-55,39,6
-49,25,4
-48,19,5
-37,8,11
-24,-1,3
-30,0,-2
-55,14,8
-76,44,13
-91,86,21
-87,74,23
-76,69,19
-63,60,15
-64,50,8
-54,29,7
-50,22,11
-43,14,16
-23,2,12
-21,-1,7
-21,4,2
-28,17,2
-57,89,-3
-74,127,-6
-77,114,-16
-57,74,23
-35,48,26
-31,19,17
-35,17,18
-34,9,14
-34,7,12
-33,6,9
-45,8,1
-58,19,6
-82,65,28
-78,69,37
-101,72,34
-72,56,42
-69,40,31
-51,21,19
-44,15,16
-37,6,13
-36,1,11
-31,-2,12
-32,2,11
-30,5,11
-40,14,16
-56,25,12
-104,68,1
-116,90,1
-112,79,5
-53,38,27
-46,17,23
-39,6,18
-36,2,18
-34,-1,16
-35,-1,13
-35,2,8
-30,0,4
-36,-1,3
-73,13,14
-83,28,21
-101,27,22
-105,34,24
-106,52,35
-75,20,29
-53,5,28
-32,-11,19
-27,-15,14
-24,-21,9
-27,-21,7
-32,-13,9
-41,0,12
-61,9,15
-96,44,8
-102,48,-1
-110,49,-5
-111,56,6
-96,43,12
-66,11,10
-60,0,-1
-65,-10,-14
-51,-12,-8
-37,-11,-4
-41,-11,-18
-37,-8,-12
-47,5,9
-40,10,15
-28,50,79
16,38,127
-125,56,31
-15,12,27
-7,4,4
-10,-14,-27
-15,-3,2
-29,38,-50
-128,127,111
-128,88,34
-18,37,6
-6,28,23
0,39,12
-1,54,5
-37,98,7
-36,110,-42
-35,109,-41
-62,118,-44
-114,98,-62
-60,53,-24
-37,36,-13
-4,26,16
-27,28,5
-29,35,0
-36,46,0
-61,55,2
-77,76,19
-47,90,34
-48,90,44
-79,70,30
-92,61,11
-75,30,-6
-64,22,-4
-57,13,-7
-61,-1,-13
-52,-17,-13
-32,-34,-9
-17,-44,6
-30,-49,11
-18,-30,23
-9,-26,25
-6,-32,19
-3,-29,15
7,-30,15
8,-32,16
13,-32,10
4,-39,7
2,-41,16
-18,-52,10
-11,-48,24
-10,-53,30
-7,-64,27
-30,-89,0
-16,-91,15
33,-76,41
46,-82,19
31,-66,31
8,-42,12
-14,-35,-3
-28,-24,17
-23,-28,28
-20,-38,30
-24,-44,18
-18,-50,19
-28,-40,19
-32,-32,12
-52,-27,-7
-54,-24,-11
-61,-24,-11
-69,-24,-1
-71,-20,-5
-99,-20,-23
-97,-16,-17
-106,-14,-19
-105,-5,-14
-89,-2,-1
-66,-14,-1
-56,-19,0
-45,-26,-5
-40,-24,-4
-48,-21,-7
-56,-11,-13
-60,-9,-15
-58,-6,-14
-60,-4,-16
-65,1,-31
-66,5,-38
-68,13,-47
-61,13,-61
-58,15,-59
-48,10,-50
-38,4,-49
-26,3,-43
-28,5,-48
-34,7,-57
-36,8,-55
-36,7,-56
-38,9,-59
-39,10,-57
-38,10,-53
-38,10,-53
-41,11,-51
-43,14,-49
-45,15,-48
-53,19,-51
-53,21,-50
-48,23,-42
-50,19,-50
-53,15,-65
-64,10,-64
-61,9,-59
-51,8,-50
-55,8,-45
-43,13,-38
-44,15,-41
-45,14,-44
-50,7,-53
-59,1,-58
-78,-22,-59
-82,-34,-58
-81,-43,-45
-65,-33,-29
-51,-26,-23
-20,-20,-15
-12,-15,-4
5,-15,4
-3,-19,0
-9,-22,16
-16,-45,10
-25,-53,16
-25,-70,19
-29,-74,8
-23,-56,3
-6,-57,7
-2,-62,2
1,-66,3
-1,-64,9
-23,-50,25
-31,-49,26
-30,-57,8
-6,-55,8
4,-55,15
10,-53,21
9,-53,19
10,-54,24
11,-54,29
2,-55,36
5,-54,29
-1,-51,12
21,-37,24
26,-34,19
13,-25,-3
4,-19,-7
-37,-7,-15
-88,7,-27
-104,7,-12
-114,-2,32
-97,-3,34
-78,8,30
-102,9,19
-74,13,62
-55,37,53
-91,18,1
-41,20,15
-53,19,19
-82,8,-3
-65,12,14
-76,15,10
-75,17,7
-72,15,4
-62,12,5
-60,9,2
-61,7,-1
-61,5,-2
-63,5,-3
-67,8,-5
-74,10,-8
-82,15,-12
-79,19,-10
-68,18,-11
-52,10,-13
-48,6,-13
-47,1,-12
-49,0,-15
-65,6,-19
-68,13,-17
-72,19,-18
-64,19,-13
-64,16,-13
-63,10,-15
-64,9,-14
-61,9,-9
-61,9,-9
-56,4,-10
-55,1,-11
-53,0,-11
-51,-3,-12
-52,-5,-13
-55,-10,-16
-60,-11,-11
-62,-9,-8
-64,-6,-5
-66,-4,-4
-59,-3,-2
-57,-4,-2
-56,-3,-6
-59,-3,-14
-67,0,-19
-77,13,-17
-82,16,-19
-83,23,-15
-75,25,-7
-73,20,-9
-61,10,-8
-54,5,-9
-54,-1,-15
-53,-1,-13
-52,3,-7
-55,5,-3
-59,4,-3
-70,7,-5
-75,11,-5
-82,20,-4
-80,20,-3
-82,16,-6
-75,15,-9
-67,13,-7
-60,8,-12
-56,6,-14
-69,11,-24
-74,20,-26
-65,28,-18
-60,25,-13
-52,21,-11
-45,13,-15
-46,11,-18
-48,11,-17
-51,13,-16
-60,16,-15
-65,16,-14
-68,15,-11
-72,12,-7
-71,10,-4
-68,7,-2
-68,5,0
-74,7,2
-73,13,3
-76,17,2
-70,24,2
-62,22,3
-52,19,2
-52,20,-2
-49,24,-6
-51,19,-9
-53,16,-10
-49,10,-7
-51,8,-7
-57,8,-6
-56,6,-4
-59,5,-6
-63,3,-7
-63,2,-5
-67,1,-5
-69,1,-6
-72,4,-6
-75,8,-6
-75,10,-6
-80,13,-6
-79,15,-5
-73,12,-7
-66,10,-6
-64,9,-8
-57,8,-8
-59,7,-11
-70,12,-18
-72,15,-20
-67,18,-18
-57,17,-13
-54,14,-13
-50,9,-13
-49,8,-12
-53,8,-14
-56,9,-16
-57,9,-10
-60,7,-10
-61,7,-10
-69,8,-13
-74,9,-13
-72,9,-10
-77,11,-10
-79,12,-20
-75,21,-7
-63,20,-5
-66,14,-19
-58,13,-21
-55,15,-21
-45,16,-16
-52,22,-17
-72,19,-25
-59,17,-13
-57,10,-17
-56,7,-19
-53,5,-15
-56,4,-16
-56,0,-17
-59,0,-20
-62,0,-20
-66,2,-22
-71,5,-23
-79,17,-25
-69,15,-15
-61,10,-13
-55,7,-14
-55,6,-18
-52,6,-20
-53,5,-21
-56,5,-23
-61,6,-24
-63,6,-23
-63,6,-19
-62,6,-18
-58,2,-17
-56,0,-17
-56,-3,-18
-59,-4,-18
-64,-4,-22
-64,-5,-25
-64,-6,-26
-60,-7,-25
-59,-9,-25
-56,-10,-25
-54,-10,-23
-54,-10,-23
-57,-10,-23
-58,-10,-23
-59,-9,-21
-59,-9,-20
-58,-9,-19
-58,-11,-20
-59,-11,-22
-63,-9,-23
-63,-9,-23
-61,-11,-20
-59,-12,-20
-59,-12,-20
-58,-12,-22
-58,-12,-23
-57,-12,-23
-57,-13,-22
-57,-13,-23
-58,-12,-24
-59,-12,-24
-61,-11,-24
-60,-11,-23
-59,-11,-25
-59,-11,-25
-58,-11,-25
-58,-10,-24
-58,-10,-24
-58,-10,-24
-58,-10,-23
-59,-9,-22
-59,-9,-22
-58,-9,-22
-59,-9,-22
-59,-9,-23
-58,-9,-23
-58,-9,-23
-58,-9,-23
-58,-9,-23
-59,-8,-23
-59,-8,-23
-59,-8,-23
-59,-7,-23
-59,-7,-23
-59,-7,-23
-59,-7,-23
-59,-7,-23
-58,-7,-23
-59,-7,-23
-59,-7,-23
-59,-7,-23
-59,-7,-23
-59,-7,-24
-60,-7,-24
-59,-7,-24
-58,-7,-24
-57,-8,-24
-57,-8,-25
-59,-8,-25
-60,-7,-25
-59,-8,-25
-60,-7,-26
-60,-7,-26
-59,-7,-25
-58,-7,-25
-59,-7,-25
-58,-7,-25
-58,-6,-25
-58,-6,-25
-57,-6,-25
-56,-7,-26
-56,-6,-26
-58,-6,-26
-58,-6,-26
-58,-6,-26
-58,-7,-26
-58,-7,-26
-57,-7,-26
-58,-7,-26
-59,-7,-26
-58,-7,-26
-59,-7,-26
-59,-7,-26
-58,-7,-26
-59,-7,-25
-59,-7,-25
-58,-6,-25
-58,-6,-25
-57,-7,-25
-57,-7,-26
-57,-7,-26
-57,-7,-26
-57,-7,-27
-58,-7,-26
-57,-7,-26
-58,-7,-26
-58,-8,-26
-59,-7,-27
-59,-6,-27
-59,-6,-26
-58,-6,-26
-58,-5,-26
-58,-5,-26
-58,-5,-26
-57,-5,-25
-57,-5,-26
-58,-5,-27
-58,-5,-26
-58,-5,-26
-58,-6,-26
-58,-6,-27
-59,-6,-27
-59,-7,-27
-60,-7,-27
-60,-7,-28
-60,-8,-28
-59,-9,-28
-59,-9,-28
-57,-10,-26
-56,-10,-25
-57,-11,-24
-57,-11,-23
-58,-11,-25
-58,-11,-26
-59,-11,-26
-59,-11,-26
-58,-11,-26
-58,-11,-26
-58,-11,-27
-58,-11,-28
-57,-11,-28
-55,-11,-27
-55,-10,-27
-55,-10,-27
-55,-9,-28
-56,-8,-28
-57,-8,-29
-60,-6,-29
-61,-5,-28
-59,-6,-26
-59,-6,-25
-61,-4,-24
-56,-4,-19
-48,-8,-15
-50,-7,-21
-55,-6,-25
-66,-5,-32
-66,-6,-33
-71,-7,-36
-72,-6,-36
-74,-2,-35
-63,-4,-28
-61,-4,-25
-50,-7,-24
-61,-8,-26
-53,-9,-22
-43,-6,-11
-55,-10,-11
-63,-9,0
-68,-11,-5
-50,-14,-10
-63,-12,-18
-69,-3,11
-60,7,3
-68,11,9
-89,22,21
-51,5,16
-45,-7,14
-66,-14,34
-68,-12,31
-58,-4,37
-67,1,34
-94,1,31
-102,1,50
-93,-21,53
-80,-32,43
-5,-27,52
4,-49,51
10,-43,44
-20,-64,5
-40,-70,0
-50,-58,3
-29,-60,3
-19,-72,7
-6,-65,20
-17,-56,11
1,-49,-3
15,-45,10
21,-43,13
26,-43,14
22,-43,30
-11,-42,25
-9,-44,28
-8,-52,22
-9,-54,28
-7,-51,36
-11,-53,21
-17,-45,25
6,-32,31
1,-31,16
5,-29,8
3,-28,1
3,-27,-10
-1,-25,-15
-6,-16,-11
-42,-5,-23
-51,-1,-25
-79,14,-13
-93,16,-16
-94,31,-19
-128,32,-33
-123,30,-28
-96,23,-27
-107,24,-31
-97,20,-28
-82,17,-23
-66,18,-21
-58,20,-21
-56,22,-21
-58,29,-27
-55,32,-30
-57,34,-28
-52,33,-25
-51,33,-23
-43,33,-18
-40,34,-15
-37,39,-13
-40,40,-14
-41,42,-9
-30,45,-2
-29,47,-2
-27,55,1
-26,59,2
-35,64,-2
-36,65,-5
-33,68,-5
-36,70,-10
-36,71,-10
-36,72,-11
-37,70,-12
-36,66,-14
-36,65,-13
-36,61,-12
-35,56,-13
-35,56,-13
-33,56,-10
-32,56,-9
-31,60,-10
-27,64,-10
-27,65,-8
-28,63,-9
-29,62,-9
-29,61,-4
-29,60,-3
-28,59,-2
-27,60,-1
-26,60,-1
-26,58,-1
-25,57,-1
-26,58,-2
-27,59,-3
-28,57,-4
-27,59,-3
-28,58,-3
-29,58,-4
-29,57,-3
-28,58,-4
-28,57,-4
-26,57,-4
-28,58,-7
-28,57,-7
-29,58,-7
-31,59,-7
-30,61,-5
-30,62,-6
-31,63,-4
-30,61,-6
-29,61,-5
-29,60,-5
-29,60,-4
-30,57,-5
-28,57,-2
-28,57,-1
-29,57,-3
-25,57,-4
-28,59,-3
-26,58,-3
-28,59,-2
-26,59,-1
-28,59,-4
-26,58,-2
-26,58,-1
-27,58,-1
-27,57,-2
-29,57,-2
-28,57,-2
-28,57,-1
-27,56,-3
-29,57,-2
-29,56,-3
-28,56,-2
-29,56,-4
-30,56,-3
-29,56,-3
-30,57,-3
-31,57,-3
-32,59,-5
-32,60,-5
-31,62,-3
-31,59,-4
-32,59,-4
-29,57,-3
-29,56,-3
-31,55,-4
-30,56,-1
-29,57,-2
-31,58,-2
-31,58,-3
-30,58,0
-30,58,0
-30,59,-1
-29,60,-2
-28,60,-2
-28,58,-2
-26,58,-1
-31,57,-4
-30,57,-3
-26,57,-3
-28,58,0
-29,58,-1
-28,58,0
-29,57,-1
-29,58,-2
-30,58,-2
-27,58,-1
-29,57,-3
-29,57,-2
-29,57,-2
-29,57,-1
-29,58,-1
-30,58,-1
-30,58,0
-29,58,0
-30,57,0
-29,58,0
-29,58,1
-29,59,0
-29,59,-1
-30,59,-2
-30,60,-1
-30,58,-1
-30,58,0
-30,58,-2
-29,57,0
-28,56,0
-28,56,-1
-29,57,-1
-27,57,-1
-29,57,-1
-29,58,0
-29,57,0
-29,57,1
-28,57,0
-31,57,-1
-28,57,0
-29,57,0
-30,57,-2
-30,58,-1
-31,57,-2
-31,57,-2
-31,58,-2
-30,58,0
-31,59,-1
-30,59,-1
-30,58,0
-29,56,1
-29,56,1
-28,56,1
-29,57,0
-29,57,-2
-27,59,-1
-26,60,0
-27,60,-2
-29,60,-3
-26,61,-1
-25,60,-1
-28,59,-2
-27,59,-2
-26,59,-1
-26,60,-1
-27,60,-1
-27,59,-2
-27,59,-2
-27,59,-1
-26,58,-2
-26,57,-2
-26,57,-2
-25,57,-2
-27,58,-2
-27,58,-2
-27,58,-2
-26,60,-3
-27,59,-2
-29,57,-3
-29,57,-3
-29,59,-3
-28,60,-2
-29,60,-3
-30,61,-3
-29,61,-1
-27,60,1
-28,59,0
-31,59,-1
-26,61,2
-25,61,2
-27,62,-1
-27,61,-2
-26,61,-2
-25,60,-2
-25,60,-1
-24,60,0
-23,60,0
-23,58,1
-25,57,1
-25,56,2
-25,57,2
-24,58,2
-25,58,1
-25,58,2
-26,55,2
-26,54,2
-26,54,1
-27,56,1
-27,58,1
-29,60,0
-30,62,0
-31,62,0
-31,62,0
-31,58,0
-29,57,0
-29,58,0
-29,60,0
-30,60,-1
-31,60,-1
-32,60,-1
-32,59,0
-30,58,1
-30,58,1
-29,59,0
-29,59,0
-28,59,-1
-28,59,-1
-27,59,-1
-26,58,-1
-26,59,-2
-25,58,-3
-25,58,-3
-25,58,-4
-26,57,-4
-25,57,-3
-26,57,-3
-26,57,-3
-28,57,-3
-27,57,-3
-28,58,-2
-28,59,-2
-28,60,-2
-31,60,-2
-30,60,-2
-31,59,-2
-30,58,-1
-30,58,0
-29,60,-1
-30,61,-2
-31,61,-3
-31,60,-2
-29,57,-1
-29,57,-1
-27,58,0
-27,59,-1
-27,59,-1
-28,60,-1
-28,60,-2
-27,58,-1
-26,58,-1
-26,58,-2
-27,59,-2
-26,59,-2
-27,59,-2
-26,59,-2
-26,57,-2
-25,55,-1
-26,56,0
-26,56,0
-27,57,0
-28,56,0
-28,57,0
-29,58,1
-29,58,0
-30,59,0
-30,59,-1
-30,59,-1
-30,58,-1
-29,58,-1
-29,58,-1
-30,58,-2
-30,58,-2
-29,58,-1
-29,58,-1
-29,59,-2
-29,60,-2
-29,60,-2
-29,59,-2
-28,59,-2
-28,58,-1
-28,58,-1
-28,59,-1
-28,59,-1
-28,59,-1
-27,58,-1
-27,57,-1
-27,58,0
-28,58,0
-28,58,1
-27,57,0
-26,57,0
-28,58,-1
-28,58,-2
-27,59,-2
-28,58,-2
-28,59,-2
-28,58,-1
-27,58,-1
-28,59,-1
-27,60,-1
-28,60,-1
-27,60,-1
-27,60,-1
-27,58,0
-28,58,0
-28,57,0
-28,57,1
-28,56,0
-28,57,0
-29,58,-1
-29,59,-1
-28,59,0
-26,58,1
-26,58,1
-29,56,-4
-28,58,-4
-29,59,-5
-29,60,-5
-30,60,-5
-31,57,-4
-29,57,-4
-31,57,-4
-30,59,-4
-30,60,-3
-29,59,-2
-29,58,-1
-28,58,-1
-28,59,0
-26,60,1
-26,57,1
-27,57,0
-27,58,0
-26,59,0
-26,60,-1
-26,60,-1
-26,59,-1
-26,59,0
-26,59,0
-26,59,-1
-26,59,0
-26,58,0
-26,58,0
-26,57,0
-27,58,0
-28,58,0
-28,58,0
-28,58,0
-28,59,0
-29,59,-1
-29,59,0
-28,59,0
-28,59,0
-28,59,0
-28,59,0
-28,59,0
-28,58,0
-28,58,0
-28,58,-1
-28,58,0
-28,58,0
-28,58,-1
-27,58,0
-27,58,0
-27,59,-1
-27,58,-1
-27,59,-1
-27,60,-1
-28,59,-1
-27,58,0
-27,58,0
-29,58,0
-28,58,1
-28,58,1
-28,57,0
-28,57,0
-29,57,0
-28,58,0
-29,58,0
-29,58,1
-29,58,0
-29,58,0
-28,58,1
-28,58,1
-29,58,1
-29,58,2
-28,58,4
-28,58,4
-29,58,2
-29,57,2
-29,57,1
-28,57,1
-28,57,1
-30,57,1
-30,58,0
-30,57,-1
-30,57,-1
-30,57,-1
-30,57,-1
-29,58,0
-29,58,0
-29,59,1
-29,60,2
-30,60,3
-29,59,1
-30,59,-2
-30,59,-1
-27,59,3
-28,59,1
-28,59,0
-28,59,-1
-27,59,0
-28,58,-2
-28,59,-2
-28,58,-2
-24,59,-1
-25,59,-2
-25,58,-1
-25,58,-1
-24,59,0
-25,60,-2
-26,59,-2
-25,59,-2
-22,59,1
-25,58,-1
-29,58,-2
-24,59,0
-22,59,3
-29,59,-2
-29,59,-3
-30,59,-3
-28,58,-3
-27,58,-1
-28,57,-1
-29,59,-1
-26,58,-1
-29,59,-6
-30,59,-4
-25,59,2
-26,60,1
-29,59,-3
-27,60,0
-25,59,-2
-32,58,-7
-28,58,-4
-24,58,-2
-29,58,-5
-27,59,-1
-27,59,-4
-29,59,-5
-26,60,-1
-25,60,0
-28,58,-3
-28,58,-2
-24,59,0
-28,58,-4
-28,58,-5
-23,58,1
-23,58,0
-28,58,-2
-26,59,-1
-26,59,0
-28,59,-3
-27,60,-1
-27,59,-3
-28,58,-2
-27,59,-2
-27,59,-2
-28,59,-1
-28,59,-1
-28,59,-2
-27,59,-1
-27,59,-2
-27,59,-1
-28,59,-1
-27,59,0
-27,60,-1
-25,60,-1
-26,59,0
-26,59,0
-26,58,-2
-26,57,0
-26,58,0
-28,57,-4
-26,58,-3
-27,58,-3
-27,58,-3
-28,58,-4
-28,59,-3
-26,59,-2
-28,58,-3
-28,58,-3
-24,58,-1
-25,59,-3
-27,60,-4
-25,61,-2
-24,61,-2
-26,60,-3
-25,59,-3
-25,57,-3
-24,55,-4
-24,55,-5
-25,55,-4
-24,56,-5
-24,59,-7
-23,60,-7
-23,61,-7
-23,61,-8
-23,61,-9
-21,60,-8
-22,59,-8
-22,60,-8
-22,60,-9
-21,61,-8
-22,62,-8
-22,62,-8
-21,62,-7
-22,63,-7
-21,64,-8
-22,64,-9
-22,65,-9
-22,63,-9
-21,62,-8
-22,61,-9
-21,62,-9
-22,63,-9
-22,63,-8
-22,61,-8
-23,60,-8
-23,59,-8
-24,61,-8
-24,61,-8
-24,62,-7
-24,61,-6
-24,61,-6
-25,62,-6
-25,62,-5
-24,64,-5
-24,64,-4
-25,60,-3
-24,57,-3
-25,56,-3
-25,56,-4
-25,56,-4
-25,56,-3
-25,56,-3
-27,56,-3
-28,57,-3
-28,58,-3
-29,59,-3
-30,58,-2
-31,57,0
-29,59,3
-30,58,2
-31,57,3
-31,56,3
-30,57,3
-29,57,2
-30,57,1
-29,59,1
-30,60,0
-29,61,-1
-29,61,-1
-28,61,0
-29,60,0
-29,60,0
-28,58,2
-28,57,2
-28,56,2
-27,56,2
-27,57,3
-26,57,4
-27,55,4
-25,57,5
-26,58,3
-25,58,2
-25,59,3
-28,58,3
-29,58,4
-29,57,3
-29,57,2
-30,57,1
-29,57,2
-30,57,1
-30,57,0
-30,57,-1
-29,57,1
-29,56,0
-29,57,0
-30,58,2
-30,58,2
-31,58,1
-31,59,1
-30,59,2
-30,58,1
-31,57,0
-28,57,2
-28,57,2
-28,57,2
-28,57,-1
-27,58,-1
-25,59,1
-27,59,0
-27,59,-2
-28,60,-2
-26,60,0
-29,60,-3
-28,60,-2
-28,61,-1
-30,60,-2
-28,60,1
-28,58,0
-27,58,0
-28,59,1
-25,60,2
-28,60,1
-28,59,2
-27,58,0
-28,57,1
-28,58,0
-26,58,-1
-26,59,-1
-25,58,-1
-26,58,0
-27,58,-1
-26,59,0
-25,60,1
-27,59,0
-26,58,0
-27,58,1
-26,58,0
-25,58,0
-26,60,1
-26,59,0
-28,60,-1
-28,60,0
-28,59,0
-28,59,0
-28,59,0
-28,58,0
-28,57,1
-26,56,-1
-29,57,1
-27,58,0
-27,58,0
-29,58,0
-26,60,0
-29,60,-1
-27,59,-1
-26,59,-1
-25,57,-1
-26,57,-2
-25,57,-2
-26,58,0
-25,59,-1
-26,60,-2
-26,60,-1
-30,62,0
-27,62,-1
-28,61,0
-28,60,0
-29,59,0
-28,58,0
-27,59,-1
-26,59,-2
-28,59,-4
-26,59,-3
-28,59,-3
-27,59,-3
-28,60,-2
-25,59,-3
-28,59,-4
-26,59,-3
-26,59,-3
-24,60,-2
-25,59,-3
-24,59,-1
-26,58,-1
-25,58,-1
-26,58,-1
-26,58,-1
-26,58,-1
-26,58,-1
-27,58,-1
-28,59,0
-28,59,-1
-27,60,-1
-28,59,-1
-27,59,-1
-26,59,-1
-29,58,-1
-28,58,-1
-27,58,-2
-28,59,-2
-28,58,-2
-28,59,-2
-28,60,-2
-27,59,-3
-28,59,-2
-27,58,-1
-28,58,-2
-27,58,-2
-27,58,-1
-27,59,-2
-28,58,-2
-27,59,-2
-26,60,-2
-28,59,-2
-27,58,-1
-27,58,-1
-28,58,-1
-27,58,-1
-28,58,-2
-29,59,-2
-28,59,-1
-28,58,-1
-28,58,-1
-27,58,-2
-28,58,-2
-27,58,-1
-29,58,-2
-29,58,-2
-28,58,-4
-27,59,-2
-28,58,-2
-26,58,-2
-27,58,-2
-26,58,-1
-27,58,-2
-27,58,-2
-26,58,-2
-27,59,-2
-28,59,-2
-27,59,-2
-26,60,-3
-26,60,-1
-28,59,-2
-28,59,-1
-27,59,-2
-27,59,-1
-27,59,-2
-26,60,-1
-26,59,-1
-26,59,-1
-27,59,-1
-27,59,-2
-28,59,-2
-27,59,-2
-27,58,-2
-27,59,-1
-27,59,-1
-26,59,-1
-27,59,-3
-26,59,-2
-26,57,-2
-27,57,-2
-27,57,-2
-29,58,-2
-28,58,-2
-28,59,1
-28,60,0
-29,60,-1
-26,58,1
-29,58,0
-26,58,-2
-27,58,-3
-28,59,-2
-27,58,-1
-28,58,-2
-28,59,-2
-28,59,-2
-28,59,-2
-27,59,-1
-27,59,-1
-27,59,-1
-28,58,-1
-28,57,-1
-27,58,-1
-28,58,-2
-28,58,-2
-28,59,-2
-28,59,-2
-28,59,-2
-29,58,-2
-28,58,-2
-28,58,-2
-27,58,-2
-28,58,-1
-28,58,-1
-28,58,-1
-28,59,0
-29,58,-1
-28,58,-1
-28,58,-1
-28,58,0
-28,58,-1
-28,58,-1
-28,58,-1
-28,58,-1
-28,58,-2
-29,58,-3
-28,58,-1
-28,58,-1
-28,58,0
-28,59,-2
-29,59,-1
-26,58,0
-28,58,-1
-29,58,-2
-27,59,0
-26,59,3
-26,59,2
-29,58,1
-29,58,1
-28,58,2
-28,58,3
-30,57,-1
-32,58,-3
-27,58,0
-29,58,0
-30,58,1
-31,57,0
-29,58,0
-30,58,-2
-30,57,-2
-30,57,-1
-28,57,-1
-28,57,-2
-29,58,0
-29,58,0
-29,58,-1
-28,59,-1
-27,59,-1
-30,59,-1
-27,59,0
-28,59,0
-28,58,0
-27,57,1
-27,58,1
-27,58,-1
-28,58,0
-28,58,-1
-28,59,-1
-28,58,-1
-28,58,-1
-28,58,-1
-28,58,-1
-28,58,-1
-28,58,-1
-29,58,-1
-29,58,-1
-28,59,-1
-29,59,-1
-27,59,1
-28,58,0
-27,59,0
-26,58,0
-27,58,0
-26,58,0
-28,58,0
-25,59,3
-29,60,-1
-27,60,-1
-27,58,-1
-26,57,0
-28,56,0
-29,57,0
-28,58,1
-30,59,-1
-28,58,1
-28,57,1
-28,58,1
-28,58,0
-26,59,0
-27,59,-1
-27,59,0
-27,59,1
-27,59,1
-25,59,2
-21,60,4
-26,61,1
-29,60,-1
-30,58,-1
-28,57,-2
-28,58,-2
-28,58,-4
-28,58,-4
-25,58,-3
-27,59,-4
-27,59,-4
-27,59,-4
-26,59,-2
-28,57,-4
-27,58,-2
-26,59,-3
-27,59,-4
-27,59,-3
-27,58,-3
-29,57,-2
-28,57,-1
-28,58,-3
-30,59,-4
-29,60,-4
-28,59,-1
-26,58,0
-27,57,-2
-28,58,-2
-26,59,-1
-30,59,-4
-29,59,-1
-28,57,-2
-28,57,-2
-29,59,-2
-28,59,-1
-28,59,-1
-29,58,-2
-28,58,-1
-28,58,-1
-29,57,-2
-29,58,-1
-27,59,0
-28,59,-1
-29,59,-1
-29,58,-1
-28,58,-2
-29,57,-3
-27,58,-2
-27,59,-1
-28,59,-2
-29,58,-3
-28,57,-2
-27,57,-1
-28,58,-1
-28,59,-2
-28,60,-2
-26,59,-2
-26,59,-3
-27,58,-3
-26,58,-2
-26,58,-2
-26,58,-3
-27,59,-4
-27,59,-3
-27,59,-3
-27,60,-2
-27,60,-2
-26,59,-2
-26,60,0
-27,60,-1
-26,61,-1
-27,59,-1
-27,59,-1
-26,58,-1
-28,57,-2
-28,57,-3
-27,59,-2
-27,59,-3
-28,60,-3
-28,59,-2
-27,57,-3
-27,57,-2
-26,58,-2
-28,59,-3
-28,60,-3
-28,58,-2
-27,57,-3
-27,57,-2
-26,58,0
-26,58,1
-26,59,-1
-27,60,-2
-26,60,0
-25,60,0
-27,60,-1
-27,59,-1
-25,58,0
-27,58,0
-27,58,0
-27,57,0
-28,58,0
-29,58,0
-28,58,-1
-28,59,-1
-29,58,-1
-30,59,-1
-30,59,-2
-28,59,-2
-30,58,-2
-30,58,-1
-29,58,-1
-28,57,-2
-28,57,-2
-28,58,-1
-28,58,-1
-28,58,0
-29,57,0
-28,57,0
-29,57,0
-30,58,0
-29,58,1
-29,59,0
-29,59,-1
-29,59,-2
-28,59,-1
-28,59,-2
-28,58,-2
-26,58,0
-27,58,0
-27,58,-1
-26,58,-1
-26,58,-1
-25,60,0
-26,60,-1
-27,60,-1
-28,59,0
-28,59,0
-27,55,0
-27,55,-1
-27,58,-1
-27,60,-1
-28,60,-1
-28,60,-1
-29,59,1
-30,58,0
-29,58,0
-30,58,0
-30,58,0
-29,58,0
-29,58,0
-29,59,0
-29,60,0
-28,60,-1
-28,60,0
-28,60,-1
-28,59,-1
-27,59,0
-27,58,0
-26,57,0
-26,58,1
-26,57,1
-26,57,1
-26,57,0
-27,58,0
-27,58,1
-28,58,0
-28,58,0
-28,58,0
-28,57,1
-28,58,0
-28,58,1
-29,58,0
-29,58,0
-29,58,0
-30,58,0
-29,59,-1
-30,59,-1
-29,59,-1
-28,58,-1
-30,59,0
-27,59,1
-27,59,1
-26,59,1
-30,59,0
-27,60,2
-27,60,2
-26,62,2
-29,60,2
-27,57,3
-26,54,3
-27,55,2
-27,59,1
-27,61,0
-26,60,1
-26,57,3
-26,56,2
-28,56,-2
-27,59,0
-26,59,1
-29,60,-1
-29,60,0
-26,58,1
-27,57,0
-28,57,0
-29,58,0
-30,59,0
-28,59,2
-27,59,1
-30,58,1
-27,59,2
-25,58,2
-27,58,1
-27,59,1
-28,59,0
-26,59,0
-26,58,-1
-26,58,0
-28,58,0
-27,59,0
-27,59,0
-27,59,1
-25,59,2
-28,59,1
-27,59,1
-27,59,2
-27,59,2
-27,58,1
-28,59,2
-26,58,1
-27,58,2
-26,58,2
-29,59,-1
-26,60,2
-26,59,1
-28,59,-1
-27,59,-1
-26,59,0
-25,59,2
-27,58,0
-28,58,0
-25,59,1
-25,59,3
-27,59,1
-26,59,2
-25,59,3
-27,59,3
-28,59,2
-28,59,2
-27,59,3
-26,59,3
-28,59,3
-27,58,1
-27,58,1
-27,59,2
-26,58,2
-28,58,1
-27,59,2
-27,59,1
-27,59,2
-27,59,1
-26,59,2
-27,59,2
-25,59,2
-26,59,2
-26,59,3
-26,59,3
-27,59,3
-26,56,5
-25,58,-1
-29,59,1
-26,60,3
-25,59,3
-29,59,-3
-33,58,-1
-23,58,5
-26,58,2
-29,59,0
-28,59,1
-26,58,2
-26,58,2
-27,58,2
-27,58,2
-26,59,2
-27,59,2
-26,58,0
-28,58,0
-28,58,1
-23,58,4
-29,58,1
-29,59,0
-29,60,1
-29,60,2
-30,60,2
-29,60,3
-27,59,2
-27,59,2
-27,58,1
-28,58,1
-25,59,2
-29,59,1
-26,59,1
-28,59,0
-28,58,0
-27,58,0
-26,57,0
-26,58,0
-26,58,-1
-27,59,-2
-26,58,-1
-28,58,0
-28,59,0
-27,59,0
-27,60,0
-27,59,0
-26,59,1
-27,59,0
-27,59,0
-26,59,1
-28,59,1
-27,59,0
-27,59,0
-27,58,0
-28,58,0
-28,58,0
-27,58,-1
-28,58,-1
-26,58,-1
-28,58,-2
-27,58,-2
-27,58,-2
-28,59,-1
-29,58,-1
-28,58,-1
-28,58,-1
-28,59,-1
-28,58,-1
-28,58,0
-28,58,0
-28,58,0
-28,58,0
-28,59,-1
-28,58,-1
-28,59,0
-29,59,-1
-29,59,-1
-28,60,0
-28,59,0
-28,58,0
-27,58,0
-28,58,-1
-27,58,-1
-27,58,-1
-28,59,-1
-27,59,-1
-27,58,0
-26,58,0
-27,58,-1
-28,59,0
-28,59,0
-28,58,0
-27,58,0
-27,59,0
-28,58,0
-28,59,0
-28,58,1
-28,59,1
-28,58,1
-28,58,0
-28,58,0
-27,59,0
-27,58,0
-27,58,0
-27,58,0
-27,58,0
-27,58,-1
-28,58,0
-27,59,0
-28,59,0
-28,59,0
-28,58,0
-27,58,0
-27,58,0
-28,58,0
-28,58,1
-28,58,0
-28,58,-1
-27,60,0
-27,59,0
-28,58,-1
-28,59,-1
-27,58,-1
-27,58,0
-28,58,-1
-27,58,0
-27,58,0
-28,58,0
-29,59,0
-28,59,0
-28,59,0
-29,58,0
-28,58,0
-27,58,1
-28,58,0
-29,58,0
-28,58,0
-27,58,1
-28,58,0
-28,58,0
-27,58,0
-26,58,-1
-27,58,-1
-29,59,-1
-28,60,0
-28,60,0
-28,59,0
-29,60,2
-29,59,0
-29,58,0
-28,58,1
-29,58,0
-28,58,0
-27,58,0
-28,58,0
-28,58,0
-28,58,0
-28,58,0
-28,58,0
-27,58,0
-26,58,0
-26,58,0
-27,58,0
-27,58,0
-28,58,0
-26,58,1
-28,58,1
-28,59,2
-26,59,2
-28,58,-1
-30,58,-1
-26,58,2
-28,58,1
-29,59,0
-28,58,1
-27,58,1
-28,58,0
-28,59,1
-28,58,1
-29,57,-3
-28,59,3
-29,59,0
-28,58,0
-28,58,0
-28,58,0
-28,58,-1
-28,58,0
-29,58,-1
-27,58,0
-28,58,0
-28,59,0
-28,58,0
-28,58,0
-27,58,1
-28,58,0
-29,58,0
-27,59,1
-27,58,1
-29,58,1
-27,59,1
-28,59,0
-28,58,-1
-28,58,0
-26,59,1
-28,58,-1
-29,58,0
-29,60,2
-29,59,-1
-31,57,-1
-25,59,3
-28,58,2
-29,59,1
-27,59,1
-28,58,1
-28,58,1
-28,58,1
-28,59,1
-27,58,1
-29,58,0
-26,59,2
-27,59,1
-28,58,1
-27,58,1
-26,58,1
-28,58,1
-27,58,1
-27,58,1
-28,59,1
-27,59,1
-27,58,1
-28,59,1
-28,58,0
-28,58,1
-28,58,0
-28,59,0
-28,59,1
-28,59,0
-27,59,0
-28,59,1
-28,58,0
-27,58,1
-28,59,0
-28,59,1
-29,59,0
-28,59,1
-28,58,1
-29,58,1
-27,58,0
-28,58,0
-28,58,0
-28,58,0
-28,58,0
-28,58,1
-28,58,1
-29,58,1
-27,58,1
-28,58,1
-28,58,1
-29,58,1
-28,59,2
-29,59,1
-27,59,1
-27,58,1
-28,58,1
-28,57,1
-26,57,1
-28,58,1
-28,58,1
-29,58,1
-29,58,1
-28,58,0
-27,58,-1
-28,57,-2
-25,58,4
-28,59,3
-29,58,3
-28,58,4
-28,59,1
-27,60,1
-26,59,2
-27,59,3
-26,59,2
-26,60,1
-26,60,3
-26,61,1
-26,59,3
-26,58,4
-25,57,2
-26,59,1
-26,60,1
-26,60,1
-26,57,1
-24,58,3
-25,58,2
-28,58,0
-26,58,1
-26,57,1
-27,57,1
-27,60,1
-28,61,-1
-27,60,-1
-26,59,-2
-26,60,1
-28,59,1
-27,59,2
-25,59,4
-28,58,4
-27,58,3
-26,59,4
-26,60,4
-28,60,2
-24,60,5
-25,59,5
-27,58,4
-27,59,4
-25,59,2
-26,59,1
-25,59,0
-26,58,-2
-27,58,-3
-26,58,1
-27,58,-1
-27,59,2
-27,59,1
-27,59,1
-27,59,1
-27,59,1
-25,59,2
-26,59,3
-27,58,0
-27,59,4
-26,59,4
-27,59,1
-28,60,1
-26,60,2
-27,59,0
-27,59,1
-26,58,0
-28,58,0
-27,58,1
-30,58,0
-27,59,0
-27,58,-3
-26,58,-1
-25,58,1
-27,58,0
-25,59,0
-27,59,0
-28,58,1
-29,58,0
-28,58,0
-29,58,1
-28,58,1
-27,58,0
-27,58,2
-29,59,-1
-27,59,0
-27,59,0
-27,59,1
-27,58,1
-28,59,0
-26,59,1
-27,59,1
-27,59,0
-28,59,-1
-26,59,0
-26,59,-1
-27,59,-1
-27,58,0
-27,59,0
-27,59,0
-28,58,0
-27,58,0
-28,59,-1
-27,59,-1
-28,59,0
-27,58,0
-28,58,-2
-27,59,1
-28,58,0
-27,59,1
-34,58,-3
-22,60,1
-28,58,0
-28,59,1
-29,59,1
-27,59,0
-29,58,-1
-27,59,1
-26,58,1
-28,58,0
-26,59,0
-26,59,0
-27,59,0
-27,59,0
-26,58,0
-27,58,0
-28,58,0
-28,58,0
-27,58,-1
-28,58,0
-28,58,0
-28,58,0
-27,58,0
-28,59,1
-28,58,0
-28,58,0
-27,58,0
-27,59,0
-28,58,-1
-28,57,-1
-28,56,-2
-30,56,-1
-29,56,-1
-29,56,-1
-29,57,-1
-30,58,-1
-28,58,-1
-28,58,-2
-27,59,-3
-27,60,-3
-26,60,-4
-25,61,-4
-27,62,-5
-27,64,-5
-26,63,-6
-26,61,-7
-25,61,-7
-25,61,-7
-25,61,-7
-24,60,-6
-24,59,-5
-25,58,-4
-24,59,-4
-25,59,-4
-26,61,-4
-26,64,-6
-26,64,-6
-27,63,-6
-26,61,-5
-25,57,-3
-24,55,-1
-25,55,1
-24,57,2
-23,57,2
-24,57,4
-24,57,4
-28,60,3
-27,60,4
-29,58,4
-30,56,6
-30,55,6
-31,57,6
-31,58,5
-34,59,4
-35,59,2
-38,59,2
-40,59,1
-43,57,-2
-41,55,-2
-40,53,-2
-37,50,-2
-36,48,-3
-35,47,-3
-34,48,-2
-33,49,-3
-31,53,0
-30,55,1
-31,55,2
-32,57,2
-33,57,3
-30,57,5
-29,58,5
-29,59,3
-30,59,1
-29,59,0
-29,58,0
-29,57,0
-29,57,0
-28,58,0
-28,57,0
-28,57,0
-28,58,0
-28,59,0
-29,59,0
-28,59,0
-28,58,0
-28,58,0
-27,59,0
-27,58,0
-27,58,0
-27,58,0
-28,58,0
-28,58,0
-28,58,0
-28,59,-1
-28,59,0
-28,59,0
-28,59,-1
-27,60,0
-28,60,0
-27,60,0
-27,60,0
-26,60,1
-26,60,1
-26,60,1
-25,60,1
-25,60,1
-25,59,1
-25,59,1
-24,59,2
-25,59,2
-24,59,1
-24,58,1
-25,58,1
-26,58,1
-26,58,0
-26,58,0
-26,58,0
-28,58,-1
-28,58,-1
-29,59,-2
-29,59,-2
-30,59,-2
-30,59,-2
-30,59,-2
-29,58,-2
-35,58,-1
-37,61,3
-44,61,2
-56,64,2
-60,65,3
-65,66,1
-66,66,-2
-80,60,-9
-79,48,-19
-72,43,-13
-63,28,-13
-62,22,-13
-61,22,-9
-58,20,-5
-57,15,-4
-67,1,-8
-68,-5,-7
-65,-22,-15
-59,-29,-16
-49,-36,-7
-33,-39,-7
-24,-39,-5
-12,-33,3
-16,-34,-1
-14,-33,-1
-12,-32,4
-16,-38,4
-12,-48,9
-8,-52,9
-11,-56,8
-13,-57,9
-10,-61,9
-10,-61,8
-10,-67,1
-7,-64,5
-7,-63,3
-11,-60,1
-9,-61,2
-9,-61,5
-14,-61,4
-18,-64,0
-11,-66,2
-10,-64,4
-8,-61,7
-4,-64,7
2,-63,12
-5,-62,14
-5,-62,14
-2,-64,11
-3,-63,10
-3,-63,8
0,-64,9
1,-64,10
-2,-63,12
-2,-63,12
1,-63,12
-2,-63,11
-3,-63,12
-3,-64,11
2,-61,18
7,-61,17
-5,-60,15
-14,-57,11
-11,-55,9
-5,-48,9
-6,-46,8
-9,-44,5
-12,-45,-1
-22,-48,-9
-28,-47,-7
-26,-45,-2
-45,-51,-19
-45,-51,-19
-38,-45,-9
-47,-41,-24
-44,-40,-22
-39,-34,-16
-46,-31,-18
-43,-27,-17
-50,-25,-19
-46,-18,-14
-44,-8,-19
-62,-4,-28
-65,13,-17
-71,18,-34
-77,22,-32
-65,28,-20
-55,32,-15
-70,37,-16
-63,40,-10
-54,42,-17
-63,42,-23
-54,45,-15
-51,48,-15
-55,50,-18
-50,49,-14
-47,50,-15
-47,51,-11
-46,50,-12
-43,49,-14
-43,50,-10
-38,52,-8
-41,52,-10
-40,52,-11
-38,54,-12
-36,55,-10
-35,56,-9
-35,54,-8
-34,55,-6
-31,53,-11
-31,55,-7
-32,55,-7
-34,54,-12
-34,55,-11
-32,56,-8
-32,56,-7
-34,54,-9
-34,53,-8
-31,55,-4
-34,56,-6
-36,55,-10
-34,57,-5
-34,56,-6
-36,55,-8
-34,54,-8
-31,54,-6
-34,54,-6
-33,53,-7
-29,55,-4
-33,54,-5
-32,55,-4
-31,55,-5
-31,56,-5
-30,57,-6
-31,57,-5
-30,57,-5
-31,57,-5
-29,58,-4
-33,58,-5
-31,57,-5
-31,57,-6
-32,58,-6
-31,57,-7
-31,57,-6
-31,57,-7
-30,57,-7
-31,57,-5
-31,56,-7
-30,57,-7
-29,57,-6
-31,56,-8
-31,56,-7
-31,56,-7
-30,56,-6
-30,56,-7
-28,57,-5
-30,57,-5
-30,56,-6
-29,57,-5
-30,57,-5
-30,57,-5
-30,57,-6
-31,56,-7
-31,57,-7
-33,57,-7
-28,56,-5
-32,57,-4
-32,57,-5
-28,58,-4
-28,58,-1
-27,59,2
-29,58,0
-30,57,0
-31,57,-1
-30,57,-2
-30,57,0
-32,58,-1
-28,58,3
-31,57,3
-30,56,0
-30,58,0
-26,57,2
-30,58,2
-27,57,2
-29,58,2
-30,57,2
-29,56,2
-31,57,1
-29,56,2
-30,57,2
-28,57,0
-28,58,2
-29,57,0
-28,57,1
-29,58,0
-28,59,1
-31,57,-1
-31,57,-1
-30,57,0
-31,58,0
-30,57,1
-29,57,-1
-31,57,-1
-30,58,0
-31,58,0
-31,58,0
-28,58,0
-30,58,-1
-29,58,1
-28,58,0
-29,59,-1
-28,58,0
-27,58,0
-25,58,-1
-27,57,-1
-28,58,-1
-27,57,0
-31,57,-1
-29,57,-1
-28,57,0
-29,57,-1
-31,57,-1
-30,58,0
-30,58,-1
-30,58,-1
-30,58,-1
-30,58,-1
-28,58,0
-29,58,-1
-30,58,0
-30,59,0
-29,58,-1
-30,59,0
-29,59,1
-30,57,0
-28,57,0
-29,57,1
-29,57,-1
-29,57,0
-26,58,2
-32,57,-1
-30,57,-1
-28,56,-1
-31,57,-1
-26,57,0
-28,57,0
-31,57,-1
-30,57,-2
-28,57,0
-30,57,0
-31,58,0
-29,59,1
-30,59,2
-30,58,1
-29,58,2
-30,57,1
-29,58,2
-31,57,1
-28,58,1
-29,58,1
-29,59,1
-29,59,0
-30,58,1
-30,58,1
-29,57,2
-30,57,1
-29,58,1
-28,59,1
-29,59,1
-30,57,1
-29,57,2
-30,57,1
-27,57,2
-24,58,3
-24,57,2
-29,58,1
-26,57,2
-28,56,-2
-25,57,0
-28,57,3
-27,58,2
-30,58,1
-30,58,2
-30,58,2
-29,57,1
-29,57,1
-30,57,1
-29,57,1
-29,58,1
-28,58,2
-30,58,1
-30,58,1
-28,58,2
-29,58,2
-31,58,1
-28,58,3
-30,59,1
-32,59,1
-27,58,4
-24,58,3
-31,58,1
-29,58,2
-27,58,3
-27,58,1
-27,57,0
-27,57,1
-28,57,2
-29,56,0
-28,57,0
-28,58,1
-28,57,1
-29,57,1
-30,58,0
-29,58,1
-28,57,2
-29,58,2
-29,58,2
-29,58,2
-29,58,3
-29,58,2
-30,57,2
-29,58,2
-29,58,3
-29,58,3
-30,58,3
-29,58,2
-30,58,1
-30,58,1
-29,57,3
-29,58,2
-30,57,2
-29,58,1
-29,58,2
-29,58,3
-30,58,3
-28,57,3
-29,57,4
-28,57,3
-29,57,2
-29,58,3
-28,57,4
-29,57,3
-29,58,3
-29,58,3
-28,58,4
-29,57,3
-30,57,3
-28,58,4
-29,58,3
-30,58,3
-28,57,3
-29,58,3
-30,57,3
-28,58,3
-30,57,2
-29,57,2
-29,57,3
-28,58,2
-27,58,3
-28,58,1
-28,58,2
-28,58,2
-29,58,2
-28,58,1
-28,58,2
-30,58,2
-29,58,2
-30,58,2
-29,58,2
-29,57,2
-29,58,2
-29,58,2
-30,58,2
-29,58,2
-29,58,1
-28,58,1
-30,58,1
-31,58,1
-28,57,2
-28,58,3
-30,58,1
-29,57,3
-28,57,2
-28,58,2
-29,58,2
-28,58,2
-29,58,2
-29,58,2
-28,58,2
-28,58,3
-30,58,2
-29,58,2
-29,58,2
-28,58,3
-30,58,3
-29,59,3
-28,59,3
-29,58,3
-28,57,3
-28,58,3
-29,58,3
-29,58,3
-29,58,4
-27,58,4
-28,57,3
-29,58,2
-28,57,3
-28,57,2
-29,57,3
-28,56,2
-28,57,3
-29,56,2
-28,57,3
-29,57,2
-29,58,3
-30,58,3
-30,58,4
-30,58,4
-30,57,3
-30,58,4
-30,58,4
-29,58,4
-29,58,4
-29,58,4
-29,58,4
-28,58,3
-29,58,3
-28,58,4
-28,57,3
-28,57,3
-28,58,3
-29,58,3
-29,58,3
-28,57,3
-29,58,3
-29,58,3
-29,58,3
-30,57,3
-29,58,3
-29,57,3
-29,59,3
-29,58,3
-28,58,3
-29,58,2
-28,58,2
-28,58,3
-28,57,3
-28,58,3
-29,58,2
-29,58,2
-28,58,3
-29,58,3
-28,58,3
-30,58,2
-29,58,3
-28,58,3
-30,58,2
-28,57,2
-29,57,2
-28,57,2
-28,58,1
-29,58,3
-28,58,3
-29,58,2
-28,58,2
-28,58,2
-28,58,3
-28,58,3
-28,58,2
-28,58,2
-28,58,2
-28,58,3
-29,58,2
-28,59,3
-28,58,3
-29,58,3
-29,58,3
-29,59,4
-31,59,4
-30,60,15
-42,62,16
-49,65,18
-60,65,5
-66,63,-4
-69,55,-14
-67,50,-21
-75,39,-37
-68,35,-41
-56,32,-41
-44,23,-34
-42,21,-39
-34,18,-32
-29,16,-31
-31,11,-30
-27,6,-28
-24,3,-26
-30,-2,-32
-30,-6,-31
-40,-12,-32
-48,-15,-33
-53,-22,-33
-49,-26,-30
-51,-28,-31
-52,-29,-31
-49,-29,-31
-50,-26,-33
-51,-24,-38
-50,-23,-38
-49,-22,-38
-49,-21,-37
-48,-20,-37
-47,-21,-37
-47,-20,-35
-48,-21,-36
-47,-21,-37
-47,-22,-34
-48,-22,-33
-48,-23,-34
-48,-23,-36
-43,-22,-31
-40,-19,-28
-39,-17,-25
-33,-13,-26
-29,-10,-22
-37,-3,-20
-48,5,-28
-47,8,-28
-62,15,-29
-63,16,-30
-62,19,-26
-57,21,-25
-61,26,-22
-66,29,-21
-60,31,-19
-55,36,-14
-61,41,-15
-61,43,-13
-55,43,-12
-42,46,-5
-48,49,-6
-46,51,-7
-40,55,-5
-39,58,-3
-38,62,-2
-39,63,-1
-37,63,0
-31,61,5
-34,61,6
-36,59,3
-36,58,3
-33,57,6
-31,57,6
-31,56,7
-31,57,7
-31,57,7
-31,58,5
-31,58,6
-28,58,6
-28,57,5
-29,56,4
-26,55,3
-27,55,4
-30,55,2
-29,56,4
-28,56,5
-31,57,1
-32,56,1
-29,57,4
-28,57,5
-32,57,3
-32,57,3
-30,57,6
-30,57,6
-31,57,6
-31,57,5
-31,57,7
-30,56,5
-30,57,5
-31,57,4
-33,57,3
-35,57,3
-28,57,5
-26,57,7
-32,57,2
-32,57,2
-29,58,3
-29,58,4
-30,59,4
-29,58,3
-30,58,4
-29,58,5
-27,58,6
-26,58,6
-28,57,5
-28,58,5
-27,57,5
-27,57,5
-27,56,4
-28,56,5
-28,56,5
-28,56,5
-28,57,4
-28,57,4
-29,57,4
-30,57,4
-31,57,4
-31,57,4
-30,58,4
-31,58,4
-30,59,4
-31,60,5
-31,61,5
-32,65,5
-31,65,5
-32,74,6
-32,84,7
-31,70,9
-35,67,6
-36,59,9
-38,41,7
-30,36,10
-24,33,6
-22,39,5
-22,46,4
-23,55,5
-21,50,4
-20,33,1
-23,34,0
-26,58,0
-25,66,-1
-55,97,2
-48,74,8
-50,64,12
-54,50,10
-53,43,9
-35,34,14
-30,31,15
-23,34,17
-26,37,10
-24,41,10
-28,47,10
-26,49,10
-27,56,7
-27,62,8
-30,71,6
-33,74,6
-34,73,5
-33,69,7
-32,67,7
-34,63,2
-32,60,3
-29,55,4
-29,53,3
-28,53,5
-29,55,4
-29,58,5
-30,60,4
-31,61,4
-29,61,4
-28,60,4
-28,60,4
-27,59,4
-27,59,4
-27,58,4
-27,57,3
-26,57,3
-26,57,2
-26,57,3
-24,58,7
-26,58,6
-26,59,4
-27,58,5
-26,58,3
-27,58,4
-27,58,5
-27,58,4
-29,58,4
-28,58,3
-29,58,3
-28,58,4
-29,58,4
-28,57,5
-28,58,5
-29,58,4
-29,58,5
-29,58,4
-29,58,4
-29,59,3
-29,59,4
-29,58,3
-28,58,4
-29,58,3
-28,58,3
-28,58,4
-28,58,4
-28,58,4
-28,58,4
-28,58,3
-28,57,3
-28,57,5
-27,58,5
-28,58,4
-28,58,3
-28,59,3
-28,58,2
-28,58,3
-28,58,3
-28,58,3
-28,58,4
-28,58,3
-28,58,3
-28,58,3
-29,58,3
-29,58,3
-28,58,3
-29,59,3
-28,58,4
-28,58,4
-28,58,3
-28,58,4
-29,58,3
-29,58,3
-28,58,3
-29,58,3
-29,59,2
-28,58,3
-28,59,3
-28,58,3
-28,58,3
-28,58,3
-28,58,3
-27,58,3
-28,57,3
-27,57,4
-28,57,3
-28,57,4
-28,57,4
-28,57,4
-29,58,3
-28,58,4
-29,58,4
-29,58,4
-29,58,5
-29,58,5
-29,58,5
-30,58,5
-29,58,5
-28,57,4
-29,58,5
-29,58,4
-29,58,5
-29,58,5
-30,58,4
-29,58,5
-28,58,5
-29,57,5
-29,58,5
-29,57,5
-29,57,5
-28,57,6
-29,57,5
-28,57,5
-28,57,4
-31,59,6
-32,60,7
-38,62,8
-39,62,10
-42,63,11
-48,60,7
-50,57,8
-49,54,11
-49,52,11
-54,46,11
-55,43,10
-55,38,10
-58,33,10
-59,31,10
-58,26,12
-57,24,12
-56,18,11
-52,16,11
-53,13,12
-55,9,11
-54,7,12
-51,3,13
-55,2,12
-59,-2,13
-60,-5,14
-65,-8,15
-65,-13,16
-62,-15,16
-53,-17,17
-49,-19,18
-50,-19,17
-50,-20,17
-51,-20,17
-51,-21,17
-54,-21,17
-56,-22,16
-55,-23,16
-52,-24,15
-50,-24,16
-53,-24,16
-55,-24,16
-53,-24,17
-55,-24,16
-58,-23,16
-58,-23,14
-59,-22,14
-62,-22,15
-58,-21,18
-58,-22,14
-55,-22,12
-56,-23,12
-55,-23,12
-59,-24,6
-60,-24,6
-62,-22,8
-61,-22,8
-60,-22,6
-61,-22,6
-61,-21,6
-61,-20,6
-60,-20,5
-59,-20,5
-60,-19,5
-61,-18,6
-61,-17,7
-62,-17,7
-61,-17,7
-61,-16,7
-61,-17,8
-61,-17,8
-61,-17,7
-60,-18,8
-61,-19,7
-61,-20,5
-62,-21,4
-63,-20,2
-62,-20,3
-62,-21,2
-61,-21,4
-62,-21,2
-56,-20,5
-56,-19,3
-59,-17,3
-59,-16,6
-62,-15,7
-63,-15,6
-61,-14,6
-61,-14,7
-59,-14,8
-59,-14,7
-61,-14,7
-62,-15,8
-63,-15,7
-64,-15,5
-64,-14,3
-63,-14,4
-62,-14,2
-61,-14,2
-61,-14,2
-63,-14,2
-64,-13,1
-64,-13,1
-64,-13,1
-66,-12,1
-64,-11,0
-63,-11,1
-61,-11,1
-61,-10,1
-60,-10,1
-62,-11,2
-65,-10,2
-66,-9,4
-66,-9,5
-62,-10,7
-60,-10,7
-58,-11,7
-60,-12,6
-61,-11,3
-65,-8,1
-66,-8,1
-67,-7,0
-67,-6,0
-64,-5,2
-64,-5,1
-63,-4,1
-61,-4,0
-61,-5,-1
-58,-6,-2
-59,-7,-3
-61,-8,-4
-63,-8,-7
-64,-8,-7
-66,-9,-9
-65,-9,-10
-64,-9,-9
-64,-10,-10
-65,-12,-10
-63,-15,-11
-62,-15,-10
-62,-16,-7
-62,-16,-6
-62,-15,-5
-63,-14,-5
-64,-11,-5
-63,-11,-5
-62,-11,-5
-62,-12,-5
-64,-12,-5
-68,-12,-4
-72,-13,-8
-78,-22,-25
-65,-26,-23
-59,-25,-19
-52,-24,-13
-50,-22,-10
-48,-19,-5
-49,-19,-4
-48,-19,-2
-48,-18,-1
-50,-18,-1
-55,-19,-4
-57,-19,-4
-60,-22,-7
-61,-24,-10
-60,-25,-11
-60,-25,-12
-62,-25,-14
-64,-24,-17
-61,-23,-15
-59,-20,-14
-58,-18,-16
-56,-18,-17
-47,-16,-15
-42,-14,-17
-43,-17,-32
-50,-19,-40
-67,-22,-52
-51,-20,-47
-40,-20,-47
-36,-25,-63
-39,-25,-67
-35,-21,-57
-35,-18,-51
-32,-18,-44
-24,-20,-38
-23,-22,-40
-24,-21,-45
-26,-19,-51
-34,-11,-53
-41,-9,-45
-39,-11,-41
-42,-12,-41
-45,-12,-40
-46,-11,-37
-49,-12,-38
-52,-13,-36
-55,-16,-38
-58,-17,-41
-59,-15,-42
-59,-14,-43
-57,-13,-40
-56,-14,-40
-50,-14,-38
-46,-12,-40
-47,-10,-40
-48,-7,-43
-48,-6,-41
-50,-5,-38
-50,-5,-37
-49,-6,-38
-47,-9,-34
-48,-11,-34
-48,-14,-35
-48,-15,-36
-49,-16,-37
-50,-16,-40
-50,-14,-39
-49,-13,-39
-49,-13,-39
-47,-13,-39
-47,-13,-40
-49,-13,-43
-50,-10,-45
-50,-9,-45
-50,-6,-42
-47,-7,-41
-41,-12,-39
-40,-14,-39
-37,-19,-41
-35,-21,-45
-34,-21,-47
-36,-22,-53
-34,-23,-54
-31,-23,-58
-32,-24,-60
-34,-24,-62
-28,-27,-62
-30,-27,-63
-26,-30,-60
-24,-32,-60
-19,-31,-59
-18,-29,-60
-15,-22,-57
-17,-19,-56
-21,-18,-59
-25,-18,-55
-24,-19,-49
-26,-24,-39
-33,-31,-31
-37,-32,-28
-43,-36,-27
-45,-39,-28
-44,-40,-27
-46,-42,-29
-44,-45,-31
-34,-47,-32
-33,-47,-34
-31,-47,-38
-30,-46,-39
-28,-45,-41
-30,-48,-43
-34,-51,-44
-41,-61,-45
-44,-64,-44
-50,-68,-33
-51,-67,-26
-47,-66,-15
-46,-66,-15
-29,-52,6
-14,-48,10
-11,-47,10
1,-37,20
4,-33,25
-2,-34,19
-1,-35,18
5,-34,29
-4,-42,17
-3,-46,16
1,-48,30
3,-46,37
-5,-53,30
-2,-58,24
2,-59,28
16,-64,35
17,-70,32
15,-76,34
14,-81,33
8,-73,26
4,-60,19
6,-60,17
8,-69,15
6,-72,13
-5,-63,10
-8,-55,16
-2,-47,25
-12,-46,9
-5,-46,11
-4,-46,10
-6,-48,11
-4,-51,19
-7,-54,24
-12,-62,28
-10,-67,31
-14,-67,29
-12,-58,35
-22,-60,27
-22,-56,9
-21,-46,9
-35,-46,1
-59,-39,-3
-57,-35,3
-55,-30,5
-52,-29,7
-50,-30,8
-49,-36,5
-48,-37,7
-45,-41,7
-46,-43,13
-56,-46,14
-55,-46,21
-58,-47,29
-62,-44,35
-61,-39,37
-60,-37,34
-64,-33,34
-70,-28,26
-70,-23,22
-61,-27,16
-67,-26,16
-60,-21,19
-53,-18,20
-48,-18,17
-45,-17,14
-43,-18,11
-39,-26,10
-43,-30,13
-46,-31,16
-50,-28,26
-48,-29,31
-45,-26,28
-45,-12,30
-41,-2,33
-30,10,24
-31,20,17
-33,46,-11
-53,84,-19
-93,102,-16
-123,117,-9
-115,126,47
-94,121,88
-75,99,81
-73,48,52
-69,17,42
-36,-14,39
-36,-14,41
-46,-12,42
-12,-6,65
46,25,51
-41,42,-26
-63,29,17
-114,57,-59
-40,75,-37
-17,92,-17
-75,96,0
-93,126,-7
-86,127,8
-25,127,127
-82,127,87
-88,122,-32
-105,74,-73
-81,1,-29
-47,6,-10
-59,1,-40
-9,-21,-37
13,-36,-20
1,-46,-12
13,-50,-5
36,-47,9
39,-55,8
41,-56,13
39,-48,36
22,-51,28
6,-58,2
14,-55,-2
25,-53,0
30,-46,12
56,-41,27
40,-48,22
20,-53,13
43,-45,37
38,-44,29
37,-25,26
33,-30,17
31,-32,9
25,-37,4
25,-41,7
16,-37,19
6,-36,13
-24,-31,15
-46,-30,21
-55,-26,25
-80,-20,21
-94,-14,23
-83,-7,30
-96,-2,23
-116,10,27
-79,21,30
-95,19,18
-69,10,20
-51,5,21
-64,3,8
-68,3,10
-65,6,7
-58,8,10
-58,9,10
-56,10,4
-55,10,5
-47,13,9
-48,17,9
-40,29,13
-52,50,9
-46,55,9
-14,62,23
-19,79,28
-42,116,12
-37,114,12
-29,98,12
-41,72,2
-42,61,1
-37,48,3
-34,45,4
-30,42,1
-35,36,-1
-33,34,1
-33,36,1
-36,43,1
-41,62,-1
-42,74,1
-40,75,2
-41,83,2
-42,73,0
-37,59,2
-38,55,2
-37,70,-1
-34,79,-2
-32,97,2
-29,89,5
-30,79,4
-28,63,3
-26,58,1
-21,54,1
-18,51,3
-17,47,2
-22,45,0
-28,45,0
-39,42,3
-46,39,0
-61,30,-3
-70,31,4
-63,26,10
-62,31,12
-62,35,17
-58,30,27
-52,29,27
-31,43,22
-17,56,27
-22,58,30
-37,48,20
-54,42,13
-91,31,15
-79,30,28
-67,16,20
-79,2,16
-70,-4,13
-50,-12,0
-40,-13,-2
-56,-7,-13
-63,-4,-18
-63,2,-10
-67,7,16
-65,7,24
-57,7,25
-51,3,23
-43,-6,11
-41,-9,4
-31,-13,-6
-19,-1,-5
-20,8,-3
-25,35,-14
-52,63,-26
-125,110,-35
-69,73,-28
-56,51,-24
-46,21,-13
-36,13,-6
-26,8,-2
-25,7,-2
-39,22,-11
-68,58,-22
-85,68,-28
-74,64,-25
-71,53,-23
-58,36,-11
-55,32,-6
-47,27,-3
-45,30,1
-42,34,1
-42,50,-4
-44,64,-3
-42,65,-2
-41,56,-3
-39,52,-2
-35,62,-1
-32,62,-1
-32,56,-5
-31,51,-7
-29,48,-5
-28,51,-2
-32,56,-3
-30,56,-1
-30,55,0
-32,55,1
-34,56,1
-33,58,3
-35,55,5
-36,53,4
-37,54,5
-34,55,7
-37,57,4
-35,59,6
-36,57,3
-39,55,0
-38,54,0
-34,54,1
-35,54,-1
-34,56,0
-33,57,0
-29,59,3
-33,59,0
-33,58,0
-30,57,4
-29,56,5
-30,57,6
-30,57,5
-29,59,5
-29,57,9
-30,53,11
-30,49,9
-32,51,10
-39,58,11
-61,65,18
-75,69,33
-87,68,21
-108,57,-15
-128,13,-71
-128,9,-61
-58,15,-39
-8,20,-28
-6,16,-23
-11,9,-33
-9,3,-37
-19,6,-31
-14,-3,-7
-45,-14,-48
-33,-10,-34
-32,-15,-46
-20,-21,-46
-21,-21,-42
-28,-20,-35
-23,-17,-32
-27,-13,-35
-52,6,-40
-74,17,-45
-115,43,-48
-103,57,-27
-54,63,41
-54,49,44
-80,27,32
-66,18,36
-56,16,40
-62,18,34
-64,19,24
-65,27,23
-65,16,26
-66,13,20
-78,22,11
-78,25,11
-56,27,23
-55,24,22
-68,23,18
-62,19,24
-54,19,28
-42,12,27
-40,9,26
-41,3,21
-40,1,26
-53,2,24
-58,0,21
-58,-1,23
-58,-6,27
-64,-9,23
-78,-11,15
-74,-11,19
-67,-15,22
-80,-21,12
-84,-24,10
-89,-25,10
-86,-23,10
-88,-25,-2
-91,-24,-1
-73,-25,7
-66,-23,9
-58,-22,5
-34,-22,4
-23,-23,9
-29,-30,-1
-24,-37,3
-18,-42,7
-22,-49,12
-24,-50,17
2,-53,27
1,-59,31
-3,-61,34
4,-55,36
2,-55,37
-15,-53,34
-11,-51,39
-23,-53,34
-24,-61,27
-5,-58,25
3,-37,35
1,-29,26
11,-29,2
12,-30,2
20,-32,21
24,-44,33
20,-49,42
4,-68,41
-5,-76,35
11,-69,43
16,-77,45
12,-77,30
8,-84,0
0,-83,-4
-9,-72,22
-9,-62,25
3,-52,14
-7,-42,14
-7,-25,15
-9,-26,6
-12,-25,4
-16,-28,0
-22,-32,-5
-38,-43,3
-44,-50,8
-59,-58,21
-66,-55,34
-97,-56,27
-85,-28,41
-93,-24,37
-88,-21,21
-74,-21,16
-50,-21,16
-52,-18,14
-49,-17,20
-39,-23,15
-33,-23,15
-35,-26,5
-36,-29,4
-39,-32,9
-47,-34,16
-50,-37,17
-61,-41,10
-66,-40,7
-77,-41,2
-75,-37,4
-71,-37,-1
-78,-40,-7
-71,-33,-1
-74,-25,-6
-71,-24,-6
-59,-22,2
-49,-20,4
-44,-21,5
-40,-22,3
-39,-21,5
-39,-21,4
-38,-23,4
-40,-32,5
-49,-37,10
-54,-41,10
-62,-40,12
-64,-40,12
-74,-51,8
-78,-43,12
-66,-25,14
-64,-25,8
-61,-24,12
-52,-17,18
-55,-14,14
-58,-21,0
-46,-27,6
-40,-29,10
-35,-28,13
-34,-28,13
-35,-29,12
-40,-29,12
-49,-31,15
-52,-37,18
-55,-42,17
-64,-44,9
-64,-44,6
-67,-51,3
-67,-50,5
-65,-38,1
-68,-43,-6
-65,-39,-1
-63,-24,-3
-56,-23,-4
-45,-24,3
-43,-23,8
-45,-22,11
-43,-27,8
-44,-29,6
-49,-32,3
-50,-33,4
-48,-36,10
-48,-38,15
-56,-39,17
-64,-37,13
-65,-33,16
-76,-38,15
-84,-32,11
-77,-38,2
-83,-29,14
-86,-29,12
-74,-34,5
-56,-36,11
-46,-49,4
-39,-52,0
-21,-53,7
-13,-45,16
-11,-39,18
4,-31,27
8,-30,30
1,-33,30
-8,-37,29
-2,-46,30
-10,-61,24
-12,-70,21
-17,-69,24
-24,-73,18
-17,-76,12
-25,-65,21
-18,-54,20
-22,-55,8
-24,-53,11
-25,-57,8
-28,-54,5
-20,-43,14
-18,-41,18
-22,-45,16
-35,-47,16
-42,-48,16
-31,-49,20
-28,-51,16
-36,-57,16
-40,-64,17
-39,-61,16
-41,-69,14
-50,-78,7
-52,-63,5
-43,-57,-9
-43,-31,4
-68,-25,-1
-61,-20,8
-42,-21,16
-36,-21,16
-38,-21,8
-35,-21,8
-33,-23,4
-35,-29,3
-44,-30,1
-57,-36,1
-57,-39,4
-63,-46,3
-62,-49,3
-64,-45,3
-71,-47,0
-80,-41,-4
-84,-27,1
-91,-22,-3
-95,-15,0
-89,-1,1
-80,1,5
-68,3,10
-64,4,11
-52,2,11
-43,1,12
-37,-4,12
-41,-6,9
-44,-6,9
-46,-11,9
-49,-13,8
-49,-14,8
-45,-12,9
-45,-5,11
-47,3,12
-48,16,13
-43,40,9
-46,50,4
-58,67,5
-56,77,3
-56,94,-4
-50,75,4
-42,63,9
-34,49,8
-37,45,6
-35,45,3
-42,52,4
-45,57,7
-49,57,11
-50,57,10
-57,66,11
-56,73,9
-43,83,8
-39,92,12
-40,82,12
-42,73,4
-46,90,3
-39,114,4
-32,112,6
-26,90,9
-22,66,10
-22,57,8
-17,46,7
-16,41,10
-16,36,13
-18,33,10
-21,33,6
-20,38,7
-19,41,7
-24,44,11
-32,48,12
-44,74,16
-49,72,18
-55,73,20
-57,85,26
-52,81,26
-56,65,18
-55,52,18
-50,28,13
-62,22,2
-58,12,-2
-42,7,-14
-45,12,-28
-51,44,-35
-72,77,-7
-63,104,66
-67,79,80
-62,51,65
-99,23,38
-92,13,39
-46,-7,24
-38,-6,-4
12,21,-63
-62,42,-6
-66,60,37
-46,52,45
-41,28,19
-28,16,-22
-26,12,0
-50,7,-8
-20,-1,42
-56,7,59
-62,4,37
-73,17,-32
47,-2,-47
-13,73,-62
19,35,-38
-112,60,-121
-104,24,-120
-128,7,-125
-119,17,-114
-89,41,-127
-84,68,-95
50,127,35
23,74,75
-7,14,11
-29,-18,-66
24,7,-86
-51,67,15
-20,-9,-3
-13,1,-20
-74,127,33
-104,103,41
-94,42,28
-82,19,5
-85,21,-27
-41,36,-9
-37,41,1
-69,30,-34
-73,60,9
-37,41,-61
-6,39,-48
38,49,-22
21,54,-42
54,43,-21
29,55,-25
26,73,-23
-7,85,-39
-69,82,-25
-56,80,-20
-88,100,-66
-110,122,-67
-87,114,-29
-106,113,-31
-112,127,-20
13,127,-10
4,109,-8
-37,46,35
-20,23,55
-40,-10,25
-44,-35,47
-76,-10,26
-26,0,35
46,1,79
-63,-17,13
-104,0,-13
-9,52,-7
-54,36,-27
-18,43,19
54,-2,26
88,-32,10
127,-84,38
1,-91,15
-52,-64,58
-62,-57,60
-36,-69,3
-12,-83,-59
64,-71,-19
14,-33,7
6,-45,-12
-3,-35,-10
5,-24,32
41,-26,62
-15,-27,88
-52,-63,54
-14,-84,-4
-26,-85,-34
-22,-94,-43
-104,-81,-57
-128,-67,-58
-93,-17,-20
-97,-13,-27
-90,-7,-11
-84,8,21
-39,5,35
-11,13,34
-10,17,44
-32,0,52
-38,-8,49
-36,-19,41
-28,-34,46
-34,-48,62
-46,-33,40
-47,-35,39
-25,-43,35
-43,-47,19
-54,-39,31
-55,-41,31
-54,-39,27
-70,-32,30
-80,-26,28
-90,-20,17
-55,-33,14
-21,-41,17
-21,-45,28
-37,-40,31
-57,-30,24
-42,-24,35
-37,-28,24
-31,-29,25
-18,-29,43
-52,-29,13
-39,-26,28
-31,-25,56
-32,-27,53
-41,-30,64
-45,-28,69
-41,-34,40
-80,-38,15
-69,-36,22
-51,-29,44
-35,-24,49
-43,-5,38
-55,-13,20
-59,-12,6
-78,3,-1
-75,1,4
-57,-17,-5
-51,-23,-9
-41,-21,3
-44,-22,13
-44,-23,9
-39,-28,5
-42,-30,-1
-44,-27,-1
-50,-25,0
-51,-25,-1
-63,-29,-14
-75,-24,-20
-76,-19,-7
-80,-25,-7
-65,-31,-8
-66,-27,-10
-74,-25,-15
-55,-27,-7
-53,-23,-6
-66,-12,-6
-61,-5,1
-51,6,6
-42,3,9
-25,5,11
-40,11,4
-46,16,3
-59,29,3
-58,33,8
-44,42,12
-53,51,7
-55,61,9
-48,60,17
-44,64,11
-35,69,5
-30,67,10
-47,82,2
-45,99,4
-43,94,3
-46,67,1
-35,52,6
-25,37,11
-20,32,11
-13,28,10
-16,33,8
-20,39,9
-27,59,12
-29,68,12
-28,74,17
-28,80,18
-28,86,12
-23,80,12
-30,83,12
-33,55,5
-42,66,5
-39,95,2
-29,111,3
-33,97,2
-34,78,3
-24,72,9
-16,60,10
-15,53,7
-13,42,7
-12,39,6
-13,36,6
-18,37,7
-20,40,10
-27,45,10
-29,50,8
-40,47,10
-37,61,11
-36,58,11
-31,60,10
-33,71,10
-23,92,7
-18,86,7
-25,71,6
-22,49,6
-20,42,8
-17,39,7
-16,40,4
-25,52,5
-28,69,8
-32,74,9
-38,81,15
-36,82,16
-42,86,10
-34,80,7
-33,87,9
-35,73,11
-35,59,5
-39,90,-5
-28,107,-8
-5,96,-2
-9,82,0
-15,57,1
-18,51,1
-14,53,-2
-14,49,-4
-12,53,-1
-10,55,5
-17,56,4
-33,70,11
-38,69,17
-45,68,13
-41,60,12
-33,59,10
-15,47,17
-15,46,16
-25,70,11
-23,78,16
-21,71,19
-20,50,15
-17,41,16
-17,30,8
-13,26,1
-14,31,2
-15,51,2
-18,65,1
-31,89,8
-36,93,11
-57,98,6
-59,92,5
-28,88,15
-37,68,17
-40,63,13
-55,84,-11
-52,100,-9
-12,104,7
-6,85,13
-12,71,10
-18,56,0
-15,54,-3
-4,56,1
2,56,3
-1,50,4
-19,56,3
-30,60,5
-50,71,8
-35,72,5
-40,50,5
-22,54,6
-13,46,14
-21,39,13
-19,49,14
-24,75,11
-27,76,14
-30,61,20
-23,52,20
-19,42,12
-18,40,7
-14,44,6
-20,58,5
-23,66,7
-29,76,11
-32,77,19
-40,80,18
-33,88,19
-30,79,22
-38,83,17
-47,78,15
-46,64,8
-37,102,1
-24,119,0
3,111,3
-2,96,2
-9,68,2
-8,57,2
-10,48,3
-17,49,7
-20,52,10
-23,58,18
-25,60,18
-39,65,8
-38,64,4
-28,53,5
-15,42,8
-17,45,9
-22,42,14
-24,40,14
-22,50,10
-25,67,16
-24,76,26
-25,67,18
-24,59,13
-22,51,18
-20,45,12
-12,47,6
-16,56,9
-21,70,13
-35,86,17
-39,86,18
-38,81,21
-38,84,20
-31,79,20
-41,87,13
-38,72,13
-30,65,12
-30,77,9
-21,114,0
-6,115,2
2,90,6
-10,61,3
-12,51,8
-22,45,9
-22,43,8
-29,46,11
-29,43,-4
-43,48,1
-32,53,6
-34,52,12
-30,53,-13
-33,54,-15
-26,50,15
-21,52,10
-25,47,11
-27,51,3
-13,73,9
-24,94,1
-18,94,8
-11,86,9
-16,66,-3
-18,60,-4
-30,53,-11
-32,56,-13
-28,67,-12
-34,69,-12
-42,66,-4
-56,72,-2
-61,77,-6
-42,78,3
-32,81,19
-30,63,22
-36,59,17
-29,83,18
-29,127,9
-9,115,7
-6,71,0
-4,57,8
-6,40,11
-9,32,5
-17,36,1
-19,46,3
-22,51,-1
-29,72,-5
-23,80,-8
-19,82,2
-7,78,8
1,70,14
2,80,17
1,69,18
-16,76,3
-22,97,5
-13,96,15
-14,69,8
-12,56,8
-20,32,2
-24,27,10
-33,19,-3
-28,31,5
-33,45,-2
-46,66,-1
-51,66,-3
-54,67,-7
-47,72,-4
-32,80,3
-24,83,14
-38,80,7
-28,78,8
-29,86,3
-22,111,-3
-19,107,-2
-6,82,11
-11,67,8
-26,44,2
-25,31,2
-19,32,2
-19,39,5
-21,43,5
-27,52,-1
-32,59,-2
-30,63,0
-29,66,5
-32,61,7
-23,69,12
-22,67,14
-19,54,10
-25,75,8
-26,85,9
-27,75,11
-29,66,10
-25,42,9
-24,33,7
-22,32,5
-23,43,3
-27,49,1
-37,68,4
-42,73,5
-51,83,8
-50,83,9
-42,79,9
-38,94,13
-33,87,15
-34,64,6
-34,80,4
-24,112,-4
-14,95,0
-12,77,0
-20,46,1
-18,43,3
-14,46,3
-16,48,1
-18,53,-1
-21,55,-1
-19,63,-1
-20,64,-1
-24,62,-1
-26,61,4
-28,56,7
-30,60,8
-30,53,11
-31,54,13
-31,77,14
-29,90,15
-26,85,18
-26,72,16
-22,47,15
-14,26,16
-11,24,12
-16,30,10
-15,35,9
-24,54,7
-31,66,8
-37,80,8
-44,86,6
-43,89,5
-34,95,10
-36,93,13
-36,68,11
-38,70,6
-30,99,6
-20,93,7
-23,78,2
-23,58,5
-21,50,7
-17,39,5
-18,41,1
-18,45,1
-20,55,1
-21,59,1
-22,66,6
-21,68,9
-26,68,11
-26,60,14
-27,61,12
-20,49,17
-20,49,16
-25,67,17
-22,83,20
-20,83,19
-21,65,22
-20,54,21
-19,30,12
-20,25,10
-18,24,9
-21,29,6
-24,49,7
-37,76,11
-36,81,14
-49,86,14
-52,86,14
-36,78,14
-32,84,20
-26,64,15
-40,85,7
-35,111,9
-19,106,9
-24,89,8
-19,63,12
-14,46,13
-13,44,12
-17,46,10
-19,50,9
-25,58,9
-25,63,8
-25,68,10
-22,69,14
-19,65,15
-14,55,16
-14,61,18
-12,48,19
-16,51,14
-24,82,13
-20,87,20
-24,76,18
-25,55,18
-24,47,15
-20,36,9
-17,37,9
-19,41,5
-23,57,12
-27,69,13
-44,88,16
-50,91,18
-49,89,16
-42,89,15
-44,89,17
-34,57,17
-37,63,10
-39,115,2
-23,119,7
-22,97,6
-21,72,3
-14,63,8
-10,52,12
-16,49,9
-22,49,4
-21,51,5
-23,62,6
-23,74,5
-24,74,8
-17,66,9
-15,59,12
-13,57,18
-8,58,25
-8,43,19
-15,71,17
-18,91,21
-23,90,17
-28,80,16
-24,61,18
-23,44,12
-20,40,9
-20,40,12
-20,44,13
-22,60,19
-25,68,23
-41,86,26
-49,89,21
-43,87,20
-40,98,17
-34,87,16
-34,62,13
-37,70,6
-36,108,1
-16,99,12
-21,92,8
-21,74,6
-14,68,9
-10,59,15
-10,57,13
-13,56,11
-15,56,12
-17,56,14
-32,59,7
-20,59,16
-11,56,16
-15,52,13
-19,50,18
-17,53,30
-12,50,30
-13,49,18
-16,59,18
-11,78,26
-5,83,28
-21,74,21
-21,59,13
-24,52,10
-21,47,12
-23,48,10
-27,56,11
-34,66,12
-40,71,11
-43,77,16
-43,81,17
-35,78,20
-29,76,22
-38,80,16
-36,63,12
-39,74,8
-29,119,5
-10,119,9
-9,98,13
-18,85,8
-12,75,16
-22,65,15
-21,61,14
-25,56,11
-25,55,9
-18,50,8
-15,46,9
-17,43,10
-16,42,11
-17,39,11
-24,36,12
-25,41,16
-21,42,23
-20,50,15
-25,66,15
-21,97,22
-17,96,22
-27,83,16
-30,75,12
-26,62,7
-22,59,9
-23,61,9
-31,63,8
-33,65,9
-35,69,10
-39,70,13
-44,75,9
-35,75,9
-30,71,10
-38,78,5
-33,64,5
-36,64,1
-34,74,-1
-28,97,-1
-15,96,3
-15,88,6
-20,77,7
-21,76,9
-18,65,10
-19,59,8
-21,62,9
-20,57,8
-17,53,9
-20,47,8
-24,47,8
-24,46,8
-25,47,14
-25,43,14
-29,50,14
-26,53,17
-23,62,19
-21,62,19
-25,78,16
-20,81,18
-20,78,18
-19,64,16
-21,57,15
-24,50,15
-23,47,16
-27,44,13
-30,54,12
-32,63,10
-31,78,14
-33,77,15
-37,78,15
-36,78,14
-29,79,14
-29,78,16
-33,76,14
-24,55,20
-26,53,15
-25,76,12
-19,88,15
-12,86,17
-14,75,17
-13,69,19
-11,56,17
-14,52,14
-15,49,16
-21,47,16
-22,45,16
-25,40,14
-25,39,13
-24,42,17
-22,46,17
-21,51,18
-25,58,13
-25,64,15
-24,76,18
-28,75,16
-30,84,15
-29,89,16
-18,79,17
-13,61,16
-10,53,16
-13,44,15
-16,43,14
-19,44,14
-23,48,16
-25,52,17
-27,58,20
-27,60,21
-30,66,19
-32,72,17
-26,73,19
-29,80,14
-29,78,14
-26,63,15
-26,58,13
-29,77,6
-20,93,5
-15,91,8
-11,81,15
-10,74,17
-6,58,16
-8,55,16
-13,55,12
-14,55,12
-13,51,18
-22,48,15
-28,45,12
-32,46,11
-29,49,12
-22,51,18
-19,47,19
-22,57,14
-19,60,16
-19,61,17
-20,70,20
-23,80,24
-25,90,27
-22,81,24
-17,58,27
-16,42,23
-16,41,17
-19,43,7
-21,46,8
-26,57,6
-34,72,8
-35,70,12
-30,57,16
-25,53,19
-35,57,7
-31,66,8
-21,77,15
-22,77,14
-29,84,11
-26,75,11
-23,67,16
-24,69,17
-30,74,9
-27,81,8
-22,75,14
-21,70,14
-21,55,11
-21,48,10
-19,40,4
-16,37,4
-17,38,9
-16,36,10
-20,36,9
-24,41,5
-28,46,4
-33,64,8
-34,72,18
-33,74,17
-36,85,18
-36,78,18
-33,64,16
-31,62,17
-28,82,14
-5,74,22
-1,65,23
-9,41,18
-11,31,14
-14,26,5
-17,25,3
-17,31,2
-21,45,4
-23,52,6
-35,71,7
-38,79,8
-31,91,9
-26,94,7
-37,104,14
-36,71,14
-38,65,10
-39,89,2
-31,99,5
-9,84,13
-9,75,12
-14,54,9
-14,37,8
-15,33,6
-14,39,5
-14,40,4
-12,49,5
-18,54,3
-21,56,1
-25,59,2
-26,58,3
-23,47,13
-33,56,9
-30,72,12
-22,94,29
-17,92,28
-24,97,18
-18,88,20
-13,72,23
-15,64,21
-22,56,21
-17,52,17
-19,50,14
-22,51,14
-22,52,14
-20,53,11
-22,54,10
-21,60,14
-21,66,16
-23,66,17
-21,60,21
-20,56,24
-20,51,24
-18,53,27
-16,54,28
-14,52,28
-16,51,26
-14,52,26
-13,52,27
-11,52,28
-20,56,18
-25,62,15
-18,76,17
-18,79,12
-23,68,2
-29,71,0
-24,66,4
-21,65,10
-20,68,11
-17,67,5
-18,63,5
-22,55,5
-19,53,6
-20,49,6
-24,49,5
-26,50,6
-30,51,6
-29,53,7
-30,51,7
-31,51,7
-32,55,9
-31,60,8
-30,65,9
-30,81,11
-29,85,14
-28,90,13
-24,84,6
-27,59,4
-25,55,12
-25,68,14
-12,71,14
-8,73,24
-41,61,3
-28,59,18
-26,55,25
-24,46,23
-27,37,13
-26,26,4
-30,24,7
-34,25,15
-46,29,13
-47,31,13
-53,35,10
-56,40,10
-52,40,2
-52,38,-3
-56,38,-23
-73,32,-64
-77,37,-76
-83,40,-74
-82,40,-69
-52,24,-54
-48,16,-51
-43,13,-40
-51,3,-38
-52,-1,-40
-53,-4,-50
-45,-9,-50
-38,-14,-42
-35,-26,-32
-33,-28,-23
-38,-35,-13
-38,-38,-11
-33,-37,10
-26,-38,17
-17,-49,15
-26,-38,40
-34,-40,37
-41,-42,32
-41,-43,29
-29,-47,26
-23,-47,21
-3,-40,27
-9,-39,16
-5,-40,15
-13,-41,23
-10,-41,27
-20,-48,21
-15,-52,27
-11,-58,33
-12,-62,34
-9,-61,36
-15,-72,40
-14,-72,38
-24,-69,29
-23,-69,25
-19,-60,22
-26,-57,5
-23,-50,7
-21,-43,8
-23,-41,9
-21,-30,18
-20,-32,16
-23,-34,13
-27,-40,10
-30,-41,9
-32,-44,9
-41,-47,5
-47,-49,5
-53,-50,3
-55,-47,1
-70,-40,-5
-71,-40,-5
-78,-29,-3
-83,-19,-3
-81,-13,-3
-77,-7,-8
-81,-5,-14
-70,-2,-12
-65,-3,-11
-62,-9,-14
-54,-11,-10
-45,-15,-6
-48,-16,-7
-46,-16,-5
-48,-17,-4
-49,-17,-3
-52,-20,-5
-53,-21,-6
-60,-20,-12
-71,-14,-18
-71,-9,-17
-76,-5,-18
-79,-8,-21
-74,-6,-22
-69,-1,-21
-66,-2,-22
-66,-2,-26
-67,0,-25
-63,4,-20
-61,7,-19
-54,7,-16
-47,1,-13
-48,0,-13
-49,0,-17
-53,0,-16
-57,1,-15
-61,0,-17
-64,-1,-15
-66,0,-12
-68,1,-11
-69,7,-6
-71,10,-5
-72,15,-6
-65,16,-7
-67,13,-13
-64,20,-14
-60,25,-13
-61,30,-18
-59,29,-18
-57,25,-16
-51,23,-10
-50,23,-7
-51,24,-8
-50,23,-8
-49,20,-7
-49,20,-6
-51,21,-6
-50,22,-6
-52,22,-5
-57,28,-6
-60,34,-7
-61,46,-9
-60,48,-8
-62,42,-10
-63,33,-16
-60,33,-16
-52,33,-13
-51,35,-14
-48,41,-16
-51,46,-18
-49,57,-20
-44,61,-21
-42,60,-20
-36,51,-15
-33,46,-13
-29,40,-12
-30,39,-14
-32,38,-15
-34,39,-16
-30,40,-15
-38,41,-18
-39,43,-19
-41,52,-18
-43,59,-19
-45,61,-19
-46,64,-19
-46,64,-20
-49,67,-21
-47,63,-20
-48,59,-20
-43,61,-19
-42,54,-17
-38,50,-10
-38,52,-10
-32,57,-9
-32,59,-8
-36,57,-7
-34,51,-4
-30,48,-2
-34,42,-1
-37,40,-2
-31,35,-3
-31,33,-3
-33,32,-3
-30,30,-4
-33,29,-5
-37,34,-8
-39,38,-9
-42,50,-8
-44,59,-9
-44,62,-9
-42,63,-10
-43,65,-12
-44,64,-14
-46,58,-16
-44,54,-13
-37,57,-12
-33,60,-12
-33,65,-14
-36,61,-16
-41,58,-15
-38,57,-11
-35,50,-9
-37,47,-10
-37,46,-10
-39,42,-13
-41,41,-15
-43,41,-16
-46,40,-17
-51,38,-16
-54,37,-14
-54,38,-13
-55,40,-13
-55,40,-13
-55,41,-15
-54,43,-16
-55,45,-19
-52,40,-16
-50,35,-14
-42,30,-8
-40,32,-8
-44,40,-11
-47,43,-12
-47,41,-12
-47,34,-13
-49,33,-13
-51,27,-14
-51,25,-11
-53,24,-9
-53,27,-8
-55,29,-7
-54,29,-6
-52,28,-6
-54,27,-10
-56,28,-12
-57,31,-14
-55,33,-14
-53,32,-13
-55,30,-20
-56,29,-23
-60,32,-26
-60,33,-26
-56,40,-24
-48,38,-18
-43,37,-14
-42,35,-18
-46,34,-21
-49,36,-20
-49,36,-20
-51,38,-21
-49,37,-19
-49,36,-18
-53,31,-22
-52,29,-23
-49,25,-22
-53,28,-23
-56,31,-22
-56,33,-19
-53,32,-19
-55,35,-18
-56,37,-18
-55,34,-18
-55,33,-20
-54,34,-21
-60,38,-25
-60,39,-24
-52,38,-18
-48,35,-16
-43,28,-9
-42,26,-9
-41,26,-10
-45,34,-10
-49,37,-12
-55,41,-16
-54,40,-14
-49,41,-9
-49,41,-9
-49,40,-9
-47,39,-9
-44,40,-7
-43,40,-8
-43,40,-8
-43,39,-8
-42,38,-7
-42,38,-7
-46,41,-11
-48,45,-12
-49,51,-13
-48,57,-10
-48,56,-11
-45,51,-11
-42,52,-11
-44,59,-11
-42,57,-11
-37,51,-10
-32,49,-9
-31,48,-10
-29,49,-11
-30,50,-13
-34,53,-17
-34,56,-18
-38,64,-21
-42,65,-24
-39,62,-21
-38,54,-16
-40,53,-14
-40,50,-15
-37,50,-15
-39,50,-15
-44,47,-20
-47,47,-20
-48,45,-19
-48,44,-19
-48,42,-16
-49,42,-15
-53,40,-18
-54,37,-18
-57,35,-19
-54,32,-18
-55,29,-20
-62,27,-20
-58,24,-20
-60,22,-22
-57,20,-16
-55,17,-15
-53,13,-16
-56,12,-18
-53,11,-16
-53,10,-16
-50,10,-13
-49,11,-15
-50,11,-14
-57,14,-14
-53,15,-13
-54,17,-7
-69,14,-17
-62,13,-14
-62,12,-19
-64,14,-20
-65,13,-16
-61,12,-13
-60,12,-13
-61,12,-9
-52,14,-4
-65,15,-12
-64,15,-11
-57,14,-11
-61,11,-19
-53,12,-13
-59,10,-22
-56,10,-20
-55,8,-24
-56,9,-23
-62,12,-28
-62,15,-35
-59,17,-33
-57,14,-32
-51,12,-30
-56,9,-31
-56,10,-31
-52,13,-26
-63,14,-32
-64,13,-32
-57,7,-29
-55,3,-33
-54,2,-33
-54,0,-34
-52,-1,-33
-50,0,-32
-51,2,-30
-58,4,-29
-64,4,-29
-64,1,-25
-59,0,-24
-53,0,-24
-56,5,-24
-61,5,-26
-57,2,-25
-55,0,-25
-56,-3,-25
-60,-3,-20
-59,-4,-16
-59,-2,-15
-60,-3,-19
-63,-1,-24
-61,0,-23
-60,-1,-27
-61,-3,-27
-60,-4,-24
-59,-3,-21
-59,-3,-22
-59,-2,-21
-58,-1,-20
-60,-1,-23
-60,-1,-23
-61,-1,-24
-61,0,-24
-58,1,-23
-58,2,-22
-58,2,-23
-59,1,-26
-59,3,-24
-63,3,-27
-60,3,-28
-61,3,-28
-58,2,-28
-59,1,-29
-56,1,-26
-56,-1,-28
-57,-1,-30
-56,-1,-31
-55,-1,-31
-57,-3,-32
-55,-4,-32
-55,-5,-32
-54,-6,-32
-55,-7,-32
-56,-6,-33
-55,-6,-33
-54,-6,-33
-55,-6,-32
-54,-6,-33
-56,-5,-35
-58,-5,-37
-55,-5,-31
-53,-6,-31
-54,-6,-30
-57,-7,-30
-54,-6,-29
-55,-5,-28
-58,-5,-30
-57,-4,-25
-57,-5,-25
-55,-6,-23
-56,-6,-26
-57,-4,-29
-57,-6,-30
-56,-4,-26
-56,-5,-26
-59,-5,-30
-57,-4,-28
-57,-4,-27
-57,-4,-28
-58,-3,-29
-58,-3,-30
-58,-2,-29
-55,-2,-29
-57,-3,-32
-57,-5,-31
-55,-5,-29
-57,-6,-30
-56,-5,-29
-57,-6,-32
-50,-3,-27
-55,-3,-28
-53,-3,-31
-55,-3,-31
-60,-6,-35
-56,-5,-29
-57,-6,-32
-59,-5,-33
-56,-5,-30
-54,-4,-28
-57,-5,-29
-57,-6,-28
-57,-7,-28
-54,-7,-28
-57,-6,-28
-57,-5,-28
-57,-5,-29
-56,-5,-29
-55,-4,-28
-55,-4,-28
-53,-4,-29
-58,-4,-32
-58,-4,-31
-56,-5,-33
-57,-5,-32
-53,-4,-34
-54,-5,-36
-52,-4,-35
-57,-2,-34
-57,-2,-34
-56,-2,-33
-54,-2,-33
-55,-3,-35
-56,-3,-34
-54,-2,-32
-52,-2,-33
-54,-3,-35
-49,-3,-32
-51,-3,-34
-52,-5,-37
-53,-6,-40
-53,-5,-38
-53,-5,-38
-50,-5,-36
-53,-4,-41
-51,-3,-37
-50,-3,-34
-55,-2,-39
-53,-2,-37
-51,-2,-39
-50,-2,-38
-51,-1,-36
-50,-1,-38
-51,-1,-39
-49,-1,-38
-51,-1,-38
-51,-1,-38
-50,-1,-38
-50,-2,-38
-52,-2,-40
-52,-2,-40
-51,-2,-39
-49,-1,-37
-52,-2,-40
-51,-1,-39
-49,-1,-37
-51,-2,-38
-50,-2,-39
-50,-1,-39
-52,-1,-38
-52,-1,-38
-51,-1,-38
-52,-2,-37
-53,-1,-39
-52,-1,-39
-51,-1,-38
-51,-1,-38
-51,-1,-37
-50,-1,-39
-50,-2,-38
-48,-2,-37
-49,-2,-37
-53,-1,-38
-51,-1,-38
-52,-1,-40
-52,-2,-40
-51,-1,-39
-51,-1,-38
-52,-1,-38
-49,-2,-37
-50,-2,-38
-49,-2,-39
-50,-1,-37
-50,0,-36
-54,0,-40
-52,0,-40
-55,1,-40
-53,1,-39
-51,0,-39
-48,-1,-37
-51,0,-36
-52,-1,-35
-53,0,-36
-55,0,-37
-54,-1,-37
-50,-1,-35
-51,-2,-35
-52,-2,-35
-51,-2,-37
-52,-2,-37
-50,-3,-38
-51,-3,-38
-52,-2,-37
-54,-1,-36
-56,-1,-36
-54,1,-35
-53,1,-34
-55,1,-35
-55,1,-33
-56,1,-32
-54,0,-31
-53,-1,-31
-54,-1,-33
-55,-2,-35
-57,-2,-35
-58,-2,-34
-57,-1,-32
-53,-2,-32
-51,-2,-34
-50,-3,-36
-51,-3,-37
-53,-2,-39
-56,0,-39
-55,1,-37
-56,1,-35
-56,0,-34
-54,-2,-32
-54,-5,-35
-55,-5,-36
-54,-2,-36
-55,-1,-36
-56,-2,-36
-54,-3,-35
-54,-4,-34
-52,-3,-32
-49,-3,-32
-49,-1,-33
-51,1,-33
-54,5,-34
-54,7,-32
-57,8,-30
-56,5,-26
-54,4,-26
-57,4,-31
-59,4,-32
-57,7,-30
-57,7,-29
-58,7,-26
-59,6,-26
-60,5,-28
-58,3,-28
-55,3,-27
-57,2,-32
-56,2,-32
-55,4,-31
-55,5,-27
-58,5,-26
-61,3,-23
-64,3,-23
-66,4,-26
-65,5,-27
-59,6,-28
-58,7,-32
-58,8,-33
-52,9,-32
-52,9,-31
-49,7,-30
-49,5,-30
-56,6,-33
-57,8,-30
-57,8,-28
-57,9,-29
-58,9,-31
-56,11,-31
-53,7,-32
-53,3,-33
-54,0,-32
-51,0,-30
-55,0,-31
-58,1,-31
-57,3,-33
-56,4,-33
-57,5,-34
-54,3,-35
-55,3,-35
-53,2,-34
-51,2,-32
-53,1,-34
-53,1,-35
-54,2,-35
-55,2,-35
-53,2,-34
-58,2,-38
-55,3,-35
-56,3,-35
-56,4,-35
-54,4,-34
-49,5,-33
-53,4,-36
-54,4,-35
-54,3,-35
-53,3,-34
-54,1,-36
-52,1,-35
-54,0,-36
-53,0,-36
-51,0,-35
-52,0,-36
-52,1,-36
-53,3,-35
-55,4,-35
-56,5,-34
-56,5,-34
-54,4,-35
-55,5,-36
-54,5,-35
-55,4,-36
-53,4,-35
-53,3,-34
-52,3,-34
-52,2,-34
-54,2,-35
-54,2,-35
-54,3,-35
-54,3,-35
-55,2,-35
-55,1,-35
-55,1,-35
-54,0,-35
-53,-1,-35
-53,0,-35
-54,0,-35
-52,-1,-35
-52,0,-35
-54,0,-36
-53,1,-35
-53,1,-35
-55,1,-36
-57,0,-36
-59,0,-38
-54,1,-35
-51,1,-32
-48,-1,-32
-48,-2,-33
-50,-2,-33
-53,-1,-36
-55,0,-40
-57,1,-40
-58,1,-40
-58,3,-35
-56,4,-32
-53,3,-30
-53,3,-31
-55,4,-35
-54,4,-36
-55,4,-38
-55,2,-38
-56,1,-36
-52,1,-32
-49,2,-32
-50,4,-31
-54,7,-33
-51,8,-30
-54,8,-30
-50,9,-29
-50,8,-28
-54,8,-32
-51,8,-30
-55,8,-33
-56,6,-35
-52,5,-32
-51,9,-30
-60,13,-41
-60,15,-40
-60,14,-38
-60,10,-34
-57,9,-30
-54,7,-28
-53,7,-32
-55,8,-37
-53,9,-41
-53,9,-44
-50,10,-42
-48,11,-38
-47,10,-35
-47,10,-33
-48,10,-32
-47,7,-29
-51,6,-32
-48,2,-32
-47,0,-32
-46,-4,-33
-48,-6,-35
-59,-5,-42
-59,3,-41
-59,4,-39
-48,4,-35
-54,4,-39
-60,4,-41
-53,1,-36
-49,-1,-34
-53,-4,-38
-55,-5,-41
-61,-1,-45
-60,3,-44
-57,8,-39
-54,7,-37
-54,7,-36
-51,5,-33
-50,3,-33
-50,2,-33
-52,1,-34
-52,0,-36
-51,-2,-34
-51,-3,-34
-51,-5,-34
-50,-5,-33
-51,-4,-33
-53,0,-34
-55,1,-35
-59,5,-36
-61,7,-37
-56,7,-32
-54,6,-29
-53,3,-28
-53,1,-28
-54,2,-28
-55,4,-29
-57,4,-31
-58,4,-31
-57,4,-30
-56,3,-30
-59,2,-31
-60,2,-30
-57,3,-27
-57,2,-26
-58,3,-26
-57,4,-25
-57,4,-25
-58,5,-26
-58,6,-26
-57,6,-26
-57,6,-26
-58,5,-27
-57,5,-27
-60,5,-29
-60,6,-28
-60,6,-28
-61,5,-28
-62,5,-28
-60,5,-27
-59,4,-26
-58,3,-25
-57,4,-24
-57,4,-24
-58,5,-25
-58,6,-24
-59,7,-24
-58,7,-23
-59,7,-24
-57,5,-22
-57,3,-22
-56,2,-21
-59,1,-20
-58,-1,-20
-60,-2,-22
-60,-1,-24
-58,0,-23
-57,0,-23
-58,0,-24
-59,-1,-25
-57,-1,-25
-62,0,-30
-62,1,-30
-61,2,-29
-62,1,-31
-59,2,-34
-54,-1,-33
-55,-3,-36
-53,-4,-35
-52,-5,-34
-50,-4,-33
-51,-4,-38
-54,-3,-40
-49,0,-34
-48,-1,-35
-49,-2,-36
-48,-3,-34
-50,-4,-35
-54,-2,-37
-56,-1,-38
-56,-3,-36
-53,-3,-34
-49,-6,-30
-49,-6,-28
-52,-7,-32
-53,-6,-35
-54,-4,-37
-55,-3,-37
-55,-4,-39
-54,-5,-37
-54,-6,-37
-53,-7,-37
-52,-8,-37
-50,-7,-36
-49,-8,-37
-48,-7,-37
-50,-7,-40
-49,-6,-39
-52,-6,-42
-53,-6,-41
-52,-6,-39
-52,-5,-37
-53,-5,-37
-53,-4,-38
-53,-4,-37
-53,-3,-37
-53,-3,-35
-52,-3,-33
-51,-3,-32
-54,-3,-34
-54,-2,-34
-53,-1,-32
-56,-1,-33
-57,-1,-32
-54,0,-28
-61,-2,-33
-62,-2,-34
-56,-3,-29
-51,-3,-25
-51,-3,-21
-65,-5,-26
-67,-11,-35
-59,-5,-24
-64,-7,-25
-61,-4,-21
-57,-6,-20
-57,-6,-17
-61,-7,-14
-61,-7,-12
-59,-5,-12
-61,-5,-17
-66,-6,-20
-67,-2,-8
-73,-4,-16
-60,-2,-9
-61,-2,-9
-65,0,-12
-66,1,-11
-65,1,-9
-63,-1,-13
-62,-2,-10
-58,-5,-14
-58,-5,-15
-66,-3,-8
-69,-2,-7
-64,-1,0
-61,-3,-4
-63,-5,-5
-64,-8,-9
-67,-8,-9
-60,6,19
-72,3,11
-64,-6,2
-62,-7,1
-63,-9,-7
-59,-9,-6
-55,-10,-4
-58,-10,-7
-61,-9,-8
-57,-6,-5
-58,-5,-5
-63,-5,-6
-66,-5,-2
-63,-4,0
-67,-5,-2
-70,-3,-2
-68,-3,0
-64,-4,2
-62,-5,2
-60,-6,0
-61,-7,-1
-58,-6,1
-57,-6,4
-62,-6,2
-64,-6,-1
-61,-5,-2
-61,-4,-3
-63,-3,-1
-62,-2,-2
-63,-1,-3
-61,-1,-2
-63,2,-2
-65,3,0
-67,3,2
-66,1,-1
-73,0,-10
-69,2,-10
-62,1,-7
-61,2,-10
-63,3,-15
-63,6,-10
-69,5,-16
-64,4,-18
-62,3,-21
-64,3,-23
-58,3,-19
-54,3,-17
-59,2,-22
-61,1,-25
-58,1,-24
-55,0,-24
-56,-1,-24
-58,-4,-25
-56,-5,-26
-61,-4,-30
-70,-2,-34
-70,0,-31
-58,1,-22
-57,0,-19
-53,-3,-18
-53,-5,-19
-53,-5,-21
-59,-4,-23
-64,-2,-24
-62,2,-21
-59,3,-19
-64,1,-23
-59,-2,-18
-63,-3,-22
-59,-3,-24
-53,-3,-20
-58,-2,-18
-65,-5,-23
-64,-8,-25
-60,-4,-20
-64,-6,-23
-62,-4,-21
-60,-4,-18
-62,-4,-17
-60,-3,-15
-60,-1,-15
-69,2,-22
-68,1,-23
-65,1,-24
-64,1,-23
-62,2,-23
-61,3,-19
-59,1,-16
-60,0,-14
-58,0,-14
-61,0,-15
-61,0,-16
-62,-1,-15
-60,-2,-14
-62,-2,-14
-62,-2,-12
-62,-1,-11
-62,-1,-10
-60,-1,-9
-59,-2,-8
-61,-2,-13
-61,0,-12
-63,4,-11
-62,4,-11
-64,5,-15
-62,6,-12
-68,7,-9
-69,5,-6
-64,4,-2
-64,3,-1
-60,1,0
-57,-1,1
-56,-1,0
-59,0,0
-62,1,-13
-62,-1,-10
-67,-3,-8
-67,-5,-10
-58,-7,-4
-68,-6,-8
-71,-5,-9
-76,2,-12
-70,5,-9
-66,4,-8
-66,2,-9
-62,2,-12
-57,1,-12
-59,-1,-16
-55,-1,-14
-57,-1,-14
-64,-1,-16
-66,-1,-17
-64,-1,-17
-60,-1,-15
-60,-2,-16
-59,-5,-15
-59,-5,-14
-62,-6,-14
-64,-7,-15
-64,-6,-15
-64,-6,-16
-67,-7,-18
-61,-6,-16
-61,-4,-17
-58,-5,-16
-57,-6,-17
-57,-8,-15
-61,-9,-15
-62,-9,-16
-63,-8,-16
-62,-7,-16
-63,-5,-17
-62,-5,-16
-63,-5,-11
-61,-6,-10
-61,-6,-11
-63,-5,-15
-65,-6,-16
-64,-5,-13
-65,-2,-12
-63,-3,-12
-60,-5,-14
-62,-6,-15
-64,-7,-15
-64,-6,-13
-68,-3,-14
-63,-2,-12
-59,-1,-10
-59,2,-11
-60,-2,-14
-61,-5,-20
-66,-6,-24
-65,-8,-30
-60,-7,-27
-63,-8,-27
-64,-8,-19
-69,-9,-16
-64,-5,-15
-57,-8,-9
-58,-10,-12
-56,-17,-26
-49,-20,-31
-39,-29,-28
-47,-34,-21
-49,-26,0
-55,-21,-4
-63,-20,-9
-65,-21,-23
-59,-19,-18
-57,-22,-24
-57,-20,-22
-56,-17,-9
-65,-17,-22
-60,-17,-14
-65,-18,-19
-64,-17,-17
-62,-16,-15
-58,-17,-16
-56,-17,-17
-61,-17,-17
-58,-17,-14
-59,-17,-11
-62,-17,-11
-56,-18,-14
-55,-17,-4
-61,-16,-4
-62,-18,-16
-63,-17,-10
-60,-13,1
-69,-14,-6
-67,-12,-8
-63,-13,-7
-62,-12,-4
-68,-10,-2
-68,-12,-6
-56,-14,-5
-53,-14,-2
-59,-16,-5
-62,-16,-4
-68,-15,-5
-64,-11,-1
-63,-11,-1
-62,-10,-5
-60,-13,-4
-60,-18,-8
-58,-17,-5
-56,-16,1
-70,-17,-12
-64,-20,-14
-62,-20,-13
-67,-18,-14
-78,-12,-19
-63,-7,-16
-60,-5,-15
-61,-6,-21
-60,-5,-18
-57,-3,-19
-57,-2,-19
-61,-2,-20
-63,0,-18
-60,-2,-18
-58,-3,-15
-57,-2,-9
-59,-5,-15
-61,-6,-20
-57,-1,-10
-62,-3,-4
-64,-6,-5
-63,-6,-1
-68,-5,0
-72,-6,0
-71,-5,3
-67,-6,3
-63,-4,4
-63,-3,5
-61,-2,7
-63,-2,6
-64,-3,3
-64,-2,0
-64,-2,0
-63,-2,2
-63,0,4
-65,2,5
-63,1,7
-64,-1,3
-58,-2,7
-63,-2,6
-67,-4,5
-63,-4,7
-60,-6,10
-61,-5,9
-65,-4,7
-62,-4,9
-63,-4,10
-61,-3,10
-62,-4,10
-61,-3,13
-62,-3,14
-61,-3,16
-62,-3,18
-63,-4,18
-61,-5,17
-62,-5,17
-62,-5,18
-64,-5,16
-63,-4,17
-66,-2,17
-66,-1,18
-65,-1,15
-60,-2,14
-55,-7,14
-59,-10,12
-62,-11,12
-66,-9,15
-67,-7,14
-66,-8,8
-63,-6,14
-56,-4,16
-55,-6,18
-53,-6,20
-64,-7,13
-66,-7,12
-62,-6,17
-64,-6,15
-60,-7,16
-59,-8,17
-58,-8,15
-59,-10,14
-60,-12,12
-60,-14,10
-66,-14,7
-66,-15,10
-67,-13,10
-66,-12,8
-60,-11,10
-60,-11,10
-61,-10,9
-60,-8,9
-62,-8,6
-60,-9,8
-63,-9,5
-68,-8,6
-68,-7,7
-66,-7,6
-65,-8,6
-65,-8,8
-65,-9,14
-64,-8,14
-61,-8,15
-63,-9,14
-65,-7,12
-63,-6,11
-63,-6,10
-60,-5,11
-62,-4,9
-61,-4,9
-59,-4,11
-62,-5,11
-59,-4,13
-61,-5,12
-61,-6,14
-63,-5,12
-64,-3,15
-62,-2,16
-62,-1,18
-54,-3,13
-51,-2,19
-60,-6,13
-62,-6,14
-67,-6,13
-62,-6,16
-60,-5,15
-58,-5,15
-58,-5,14
-62,-6,12
-63,-6,12
-64,-5,15
-68,-4,16
-68,-4,15
-67,-4,16
-65,-4,16
-63,-1,18
-62,-1,17
-61,0,16
-59,2,17
-59,2,18
-62,2,14
-62,2,16
-62,2,16
-63,1,15
-61,1,16
-59,0,17
-60,0,17
-63,0,17
-63,0,16
-61,0,18
-61,1,20
-62,3,20
-58,2,20
-59,1,19
-63,1,19
-61,1,20
-60,1,18
-60,1,20
-60,1,18
-62,1,19
-61,0,19
-59,-1,21
-62,-1,20
-61,-2,19
-64,-3,16
-58,-3,18
-57,0,23
-60,0,21
-57,2,24
-60,0,21
-59,0,21
-61,0,20
-60,-1,20
-59,-1,21
-58,0,21
-59,1,22
-62,1,20
-66,0,17
-63,-1,17
-62,0,17
-61,0,19
-62,0,17
-64,0,17
-63,-2,13
-54,0,18
-62,-1,17
-63,-1,20
-65,-2,20
-57,-1,25
-57,-1,26
-51,-1,34
-53,-1,35
-53,-2,37
-49,-1,41
-50,-1,39
-54,-1,36
-53,-1,36
-49,-1,37
-51,-1,36
-53,0,37
-52,0,36
-49,0,36
-52,0,36
-51,0,41
-58,-1,40
-60,-2,38
-52,-4,38
-48,-3,40
-47,-4,39
-47,-5,39
-48,-6,43
-49,-4,42
-41,-5,44
-38,-2,43
-41,-1,44
-44,-1,45
-45,-2,44
-44,-3,47
-49,-4,45
-47,-5,45
-45,-5,42
-45,-4,44
-45,-4,46
-45,-4,45
-48,-4,42
-45,-5,45
-46,-4,42
-47,-5,39
-48,-5,41
-49,-5,41
-50,-4,36
-50,-4,36
-45,-5,43
-49,-5,42
-52,-6,36
-43,-3,42
-52,-6,46
-48,-5,45
-45,-5,44
-46,-4,41
-48,-4,40
-46,-4,42
-48,-4,39
-48,-6,39
-48,-5,38
-50,-5,39
-50,-5,42
-52,-5,43
-50,-5,45
-47,-5,44
-47,-4,44
-48,-2,44
