Accelerometer x,Accelerometer y,Accelerometer z
32.000000, 32.000000, 32.000000
-27,-47,46
-22,-45,47
-22,-45,46
-24,-41,47
-25,-41,50
-19,-39,46
-28,-36,52
-27,-35,54
-26,-32,50
-28,-32,51
-29,-33,51
-29,-31,50
-26,-31,51
-26,-28,50
-28,-27,51
-29,-26,53
-29,-25,52
-28,-23,52
-30,-23,51
-31,-24,53
-31,-24,52
-34,-23,51
-26,-23,53
-26,-24,53
-24,-24,54
-31,-22,51
-30,-21,52
-33,-19,50
-33,-19,51
-31,-19,52
-27,-19,46
-33,-21,53
-27,-21,57
-27,-20,54
-27,-22,55
-25,-25,56
-32,-24,58
-34,-20,57
-23,-21,55
-20,-24,46
-27,-23,51
-28,-23,57
-28,-20,56
-24,-20,47
-29,-21,51
-29,-22,54
-26,-22,58
-28,-20,56
-29,-20,53
-29,-22,54
-28,-23,53
-29,-23,52
-26,-24,53
-27,-24,52
-28,-23,53
-28,-23,54
-28,-22,54
-29,-21,52
-28,-21,54
-28,-21,53
-28,-22,53
-29,-22,53
-31,-23,55
-26,-23,55
-26,-22,52
-29,-21,51
-29,-21,51
-30,-20,51
-30,-20,52
-29,-20,54
-28,-21,55
-29,-21,54
-30,-21,55
-28,-19,55
-25,-17,52
-25,-17,53
-32,-18,54
-31,-18,53
-29,-19,53
-28,-22,53
-28,-22,52
-28,-23,53
-30,-22,54
-30,-22,52
-30,-21,51
-29,-19,52
-28,-19,54
-30,-19,52
-29,-19,53
-29,-19,54
-31,-19,53
-30,-20,54
-29,-19,54
-30,-20,54
-30,-20,54
-31,-20,51
-30,-20,53
-30,-21,54
-26,-20,53
-24,-21,52
-30,-20,52
-30,-20,54
-29,-21,52
-33,-19,53
-31,-20,53
-30,-19,52
-29,-19,52
-31,-20,54
-29,-21,54
-27,-20,53
-29,-20,53
-28,-21,55
-33,-19,58
-28,-18,56
-26,-22,49
-29,-16,53
-30,-13,54
-30,-13,52
-29,-12,49
-29,-16,50
-28,-18,54
-26,-21,52
-24,-22,51
-29,-26,56
-22,-27,53
-22,-27,51
-24,-28,57
-27,-26,56
-24,-22,54
-25,-21,49
-39,-25,56
-45,-29,74
-37,-27,64
-26,-28,36
-34,-28,32
-30,-26,43
-27,-26,49
-23,-24,52
-29,-22,50
-28,-21,49
-28,-19,50
-25,-17,53
-24,-17,55
-27,-17,55
-32,-18,61
-30,-16,59
-28,-16,59
-30,-15,55
-29,-16,51
-25,-17,54
-28,-17,55
-27,-18,50
-32,-20,52
-30,-22,53
-26,-22,49
-28,-22,48
-28,-26,53
-25,-36,60
-27,-35,68
-20,-27,61
-21,-24,56
-22,-23,56
-24,-24,59
-29,-24,62
-35,-28,48
-35,-26,45
-43,-18,49
-34,-19,54
-35,-16,52
-35,-15,52
-33,-14,51
-40,-13,49
-40,-13,53
-46,-14,54
-49,-16,53
-47,-17,54
-49,-16,53
-48,-16,51
-48,-13,51
-47,-11,50
-47,-9,48
-48,-9,47
-50,-8,44
-50,-6,41
-50,-5,38
-46,-3,39
-45,-2,35
-45,0,36
-42,1,38
-41,2,37
-41,3,38
-39,3,42
-35,4,41
-35,5,39
-33,5,41
-33,6,42
-36,6,41
-41,2,47
-42,1,48
-40,-3,47
-42,-3,47
-40,-4,48
-39,-4,46
-41,-6,45
-42,-5,47
-42,-5,47
-42,-5,46
-43,-5,46
-42,-6,49
-41,-7,50
-43,-8,50
-42,-10,50
-41,-10,49
-41,-10,47
-40,-9,46
-39,-7,44
-39,-6,44
-41,-5,48
-45,-3,51
-46,-1,52
-49,0,51
-49,1,52
-45,4,50
-43,7,50
-39,8,52
-36,7,52
-37,6,49
-39,2,53
-37,0,52
-36,-3,53
-32,-7,47
-41,-10,51
-38,-8,50
-34,-8,47
-42,-7,47
-42,-6,47
-34,-5,48
-41,-2,48
-40,-3,49
-36,-2,53
-37,-2,51
-39,-5,53
-33,-6,60
-38,-4,55
-33,-3,57
-34,-1,55
-34,-3,56
-37,-2,55
-39,-2,50
-40,-1,52
-37,0,51
-35,-1,49
-35,-2,48
-31,-1,52
-31,0,55
-35,0,51
-32,-2,52
-32,-3,54
-34,-4,54
-31,-3,55
-38,-2,55
-38,-1,54
-37,-1,51
-37,0,50
-36,1,53
-34,1,54
-33,0,54
-30,-2,54
-30,-2,55
-32,-3,56
-27,-4,57
-35,-2,55
-39,0,53
-40,1,52
-44,4,49
-38,4,52
-29,2,55
-22,-1,57
-31,-2,57
-23,-6,62
-23,-7,61
-30,-5,56
-30,-5,61
-26,-8,61
-27,-9,60
-29,-8,62
-26,-6,63
-28,-4,58
-28,0,56
-27,3,57
-30,7,52
-30,9,52
-27,10,52
-24,9,54
-24,8,56
-24,6,58
-22,5,59
-19,4,60
-21,2,61
-22,1,61
-23,1,62
-24,1,60
-22,2,61
-21,1,61
-21,2,60
-21,2,60
-20,2,61
-20,2,59
-21,2,60
-22,3,58
-22,3,59
-21,3,59
-23,3,58
-23,2,59
-22,3,60
-22,3,60
-23,3,58
-21,4,58
-24,3,57
-25,4,55
-28,4,55
-24,3,60
-25,3,60
-22,1,57
-16,-3,65
-20,-4,68
-20,-6,62
-12,-8,59
-19,-9,64
-20,-9,65
-12,-8,62
-17,-8,62
-23,-8,61
-19,-10,68
-15,-13,68
-18,-15,70
-16,-14,71
-15,-9,63
-21,-5,57
-22,-3,54
-23,0,53
-25,3,52
-26,5,48
-24,5,48
-28,3,55
-28,3,57
-26,2,57
-27,2,57
-27,1,59
-26,1,60
-30,-1,59
-31,-1,61
-30,-2,60
-28,-4,60
-26,-5,60
-29,-5,58
-22,-6,58
-31,-6,56
-29,-6,58
-25,-5,56
-26,-4,56
-28,-4,57
-32,-5,57
-30,-4,58
-33,-5,53
-31,-5,54
-32,-4,54
-33,-4,53
-32,-4,54
-26,-6,56
-30,-7,57
-32,-7,56
-31,-6,57
-33,-5,55
-35,-6,53
-38,-6,54
-35,-5,54
-39,-5,51
-38,-6,50
-38,-6,51
-36,-6,52
-38,-5,50
-35,-6,51
-36,-5,52
-38,-5,52
-36,-6,52
-37,-6,52
-37,-6,52
-37,-6,52
-36,-6,51
-35,-7,52
-36,-7,52
-37,-8,51
-35,-10,50
-35,-10,51
-36,-9,48
-35,-10,51
-36,-11,54
-39,-12,54
-37,-13,52
-37,-13,53
-36,-12,53
-36,-12,50
-36,-12,50
-37,-12,50
-37,-11,48
-36,-12,46
-38,-12,45
-38,-13,45
-35,-14,42
-30,-16,38
-29,-18,42
-31,-19,44
-26,-18,39
-26,-17,38
-33,-20,51
-31,-17,40
-34,-17,44
-42,-22,52
-37,-23,45
-44,-24,48
-44,-25,49
-39,-24,41
-40,-25,47
-41,-27,49
-37,-32,50
-34,-33,52
-36,-36,53
-34,-36,52
-29,-36,51
-33,-38,55
-29,-38,57
-34,-40,51
-37,-40,58
-29,-36,53
-25,-35,52
-23,-32,52
-15,-29,53
-18,-29,53
-19,-25,51
-19,-24,45
-22,-25,51
-23,-26,55
-30,-33,55
-47,-44,64
-34,-42,74
-26,-33,48
-33,-29,42
-27,-27,50
-23,-24,47
-25,-22,46
-23,-21,47
-22,-21,49
-26,-20,48
-29,-20,47
-25,-22,50
-27,-24,51
-29,-25,52
-27,-26,54
-27,-26,52
-29,-26,53
-26,-27,54
-30,-27,49
-28,-29,53
-25,-28,55
-24,-27,52
-27,-26,52
-24,-27,52
-20,-27,52
-26,-27,51
-28,-28,46
-27,-29,50
-28,-28,55
-31,-27,52
-24,-27,50
-27,-29,51
-30,-28,47
-29,-31,50
-28,-29,52
-25,-28,50
-26,-28,50
-25,-28,50
-25,-28,51
-27,-28,51
-29,-28,50
-28,-29,51
-27,-27,50
-26,-28,49
-26,-28,51
-27,-27,51
-28,-28,53
-30,-25,56
-28,-26,53
-31,-33,43
-31,-30,49
-27,-25,51
-26,-27,52
-26,-27,53
-25,-26,50
-28,-26,50
-29,-27,51
-29,-26,51
-28,-27,52
-28,-25,50
-28,-25,50
-29,-25,50
-27,-26,51
-28,-25,49
-29,-26,50
-29,-26,53
-32,-26,51
-32,-27,50
-25,-26,50
-26,-26,47
-30,-26,48
-29,-27,51
-29,-26,51
-29,-25,52
-28,-26,53
-28,-25,51
-29,-25,51
-29,-26,50
-28,-26,48
-30,-27,48
-31,-26,51
-29,-25,51
-28,-25,50
-30,-25,50
-31,-26,52
-29,-25,50
-30,-25,49
-29,-26,51
-29,-26,51
-30,-25,50
-30,-25,50
-30,-26,51
-30,-25,49
-30,-25,49
-29,-25,50
-30,-25,49
-33,-25,46
-32,-25,47
-29,-24,52
-30,-24,51
-32,-25,51
-29,-26,54
-29,-25,53
-31,-25,51
-33,-24,49
-32,-24,47
-35,-25,48
-35,-26,49
-32,-27,49
-33,-27,49
-32,-26,49
-30,-25,49
-31,-25,48
-33,-25,47
-32,-26,48
-31,-25,48
-31,-25,46
-37,-26,48
-34,-27,50
-34,-26,50
-35,-26,48
-34,-26,49
-33,-25,48
-33,-24,48
-31,-24,46
-35,-25,46
-36,-25,47
-34,-26,48
-33,-26,48
-34,-24,47
-33,-25,47
-30,-26,49
-31,-26,46
-35,-28,48
-31,-28,51
-31,-27,48
-33,-27,47
-31,-28,48
-31,-27,49
-32,-26,48
-33,-26,48
-33,-26,49
-33,-25,49
-32,-25,48
-32,-26,49
-33,-26,49
-33,-26,49
-32,-26,48
-32,-25,48
-32,-26,48
-32,-25,48
-32,-25,49
-32,-26,49
-34,-26,49
-33,-26,49
-33,-25,49
-32,-25,48
-32,-25,48
-32,-26,48
-32,-26,48
-32,-26,48
-32,-26,49
-32,-25,49
-32,-25,48
-33,-26,49
-32,-26,49
-32,-25,49
-32,-25,48
-32,-26,48
-33,-25,49
-33,-25,49
-33,-25,49
-32,-25,49
-33,-25,49
-32,-25,49
-32,-25,49
-32,-25,49
-32,-26,49
-32,-26,49
-32,-25,49
-32,-25,48
-32,-25,49
-32,-25,48
-32,-25,49
-33,-25,49
-32,-25,49
-32,-25,49
-32,-25,49
-32,-25,49
-32,-25,49
-32,-25,49
-32,-25,49
-32,-25,48
-32,-26,48
-32,-25,49
-33,-25,49
-32,-25,49
-33,-25,48
-32,-24,49
-32,-24,49
-34,-24,50
-35,-25,49
-31,-24,50
-30,-24,50
-33,-24,47
-31,-26,49
-30,-26,50
-31,-25,48
-33,-25,48
-32,-25,50
-32,-24,49
-32,-24,50
-31,-24,49
-32,-24,49
-31,-25,51
-28,-25,51
-31,-25,53
-25,-25,49
-26,-25,49
-32,-24,49
-32,-24,49
-28,-24,51
-27,-22,48
-35,-22,52
-31,-23,56
-35,-23,50
-28,-25,52
-29,-25,51
-29,-25,48
-28,-26,49
-29,-26,49
-29,-26,50
-29,-25,50
-32,-24,50
-31,-24,51
-30,-24,52
-29,-24,52
-30,-23,51
-32,-24,51
-30,-25,49
-32,-25,51
-33,-24,51
-26,-26,55
-20,-25,55
-26,-23,50
-31,-24,48
-35,-24,49
-34,-24,53
-34,-23,51
-32,-24,51
-27,-25,51
-28,-24,50
-29,-25,51
-29,-26,52
-31,-21,53
-31,-22,51
-32,-25,45
-33,-28,47
-28,-27,52
-29,-24,52
-30,-24,50
-30,-24,50
-31,-23,50
-34,-23,50
-32,-25,50
-33,-25,51
-30,-24,51
-29,-24,51
-31,-25,51
-30,-25,51
-30,-24,50
-30,-24,51
-31,-24,50
-31,-25,51
-30,-25,51
-31,-24,49
-32,-25,49
-31,-25,50
-32,-24,49
-32,-24,49
-31,-24,50
-30,-24,50
-31,-24,51
-30,-24,51
-30,-24,50
-31,-24,51
-30,-24,51
-31,-24,50
-31,-24,50
-31,-24,49
-32,-24,50
-32,-24,50
-31,-24,51
-31,-24,50
-30,-24,51
-31,-24,50
-31,-24,50
-31,-24,50
-31,-24,50
-31,-24,50
-31,-25,50
-32,-25,50
-32,-24,50
-31,-24,50
-31,-24,50
-32,-24,50
-31,-24,50
-32,-24,50
-31,-24,50
-31,-24,50
-33,-24,50
-31,-25,50
-29,-25,50
-30,-25,49
-30,-25,49
-31,-25,50
-30,-24,50
-30,-24,51
-29,-24,51
-30,-24,51
-29,-24,51
-30,-24,51
-29,-24,48
-32,-25,50
-28,-26,52
-33,-24,50
-32,-24,50
-28,-24,53
-30,-23,51
-32,-25,52
-28,-25,52
-29,-24,51
-31,-25,50
-30,-25,52
-31,-24,50
-31,-24,50
-31,-24,50
-30,-24,50
-31,-24,50
-32,-25,51
-32,-25,50
-30,-24,50
-30,-24,50
-31,-24,50
-29,-24,50
-30,-24,50
-30,-25,50
-32,-26,51
-30,-26,51
-27,-26,49
-26,-26,50
-29,-24,51
-29,-25,51
-30,-25,52
-30,-24,51
-29,-24,51
-31,-25,50
-29,-26,51
-32,-24,50
-29,-25,52
-27,-25,52
-28,-25,52
-29,-25,51
-29,-24,50
-29,-24,52
-32,-23,55
-32,-25,55
-29,-25,50
-29,-27,48
-27,-27,46
-30,-27,49
-29,-26,51
-30,-24,50
-30,-24,51
-31,-24,52
-31,-24,52
-30,-24,51
-30,-24,50
-30,-25,51
-30,-25,51
-30,-25,51
-30,-24,51
-29,-24,51
-30,-24,51
-30,-24,51
-30,-24,51
-30,-24,49
-30,-24,49
-31,-25,50
-31,-24,50
-30,-24,51
-30,-25,51
-31,-24,50
-30,-24,50
-30,-24,50
-30,-24,51
-30,-24,51
-31,-24,51
-30,-24,51
-30,-24,51
-30,-24,50
-30,-24,50
-30,-24,51
-30,-25,50
-31,-24,50
-31,-25,50
-31,-25,50
-30,-24,50
-30,-25,50
-30,-25,50
-31,-25,50
-31,-25,50
-31,-25,50
-31,-25,50
-30,-25,50
-30,-25,50
-31,-24,50
-31,-25,50
-31,-24,50
-30,-25,50
-30,-24,50
-31,-24,50
-30,-24,51
-30,-25,50
-31,-24,50
-31,-25,50
-31,-25,51
-30,-25,51
-31,-24,50
-31,-24,50
-31,-24,50
-31,-24,51
-31,-24,50
-31,-24,50
-31,-24,51
-31,-24,50
-31,-24,50
-31,-24,50
-31,-24,50
-31,-24,50
-32,-24,50
-32,-25,50
-32,-25,51
-30,-24,50
-30,-23,50
-28,-22,48
-30,-24,50
-31,-30,55
-29,-31,54
-30,-28,44
-32,-35,47
-30,-38,48
-25,-37,44
-29,-35,40
-31,-35,42
-27,-39,44
-24,-38,44
-27,-34,45
-27,-33,41
-33,-37,41
-32,-37,44
-33,-34,44
-34,-34,43
-32,-35,44
-31,-35,42
-32,-34,42
-31,-32,43
-30,-32,44
-31,-32,45
-34,-31,45
-35,-30,44
-33,-29,45
-32,-28,45
-34,-28,47
-34,-28,49
-34,-28,50
-36,-27,49
-35,-27,48
-34,-25,47
-33,-24,46
-33,-25,47
-33,-25,46
-35,-25,47
-35,-24,48
-36,-24,48
-37,-24,49
-36,-24,50
-36,-24,48
-36,-23,47
-35,-24,47
-35,-26,46
-36,-26,45
-38,-27,45
-37,-27,45
-36,-28,44
-36,-28,43
-35,-28,43
-35,-29,43
-35,-28,43
-36,-27,44
-38,-27,45
-39,-26,45
-38,-24,45
-37,-24,45
-38,-24,45
-37,-24,45
-37,-25,46
-38,-25,46
-38,-25,46
-36,-24,45
-36,-24,45
-38,-25,46
-37,-25,46
-36,-25,45
-36,-25,44
-38,-26,45
-38,-26,46
-39,-26,45
-36,-25,45
-36,-25,45
-37,-26,45
-37,-26,47
-34,-24,47
-37,-24,45
-37,-25,47
-38,-25,47
-37,-25,46
-37,-25,46
-37,-24,45
-37,-25,46
-36,-24,46
-36,-25,46
-36,-25,47
-36,-25,47
-35,-26,47
-35,-26,46
-35,-26,46
-35,-26,47
-35,-26,47
-34,-26,46
-34,-26,45
-35,-27,46
-35,-27,47
-34,-27,47
-33,-25,48
-33,-25,47
-35,-25,48
-35,-25,47
-35,-26,47
-35,-26,47
-34,-26,47
-34,-27,47
-34,-26,46
-33,-26,47
-34,-25,46
-40,-26,44
-38,-26,46
-35,-26,47
-34,-26,47
-34,-26,48
-36,-25,46
-36,-25,45
-36,-25,46
-35,-26,47
-35,-25,47
-34,-25,46
-34,-26,46
-35,-26,47
-35,-25,47
-35,-25,47
-35,-26,47
-38,-27,46
-35,-26,48
-35,-26,47
-36,-25,45
-34,-25,47
-31,-26,47
-36,-26,48
-35,-25,48
-34,-25,47
-35,-26,46
-36,-25,47
-34,-25,47
-33,-25,47
-34,-25,48
-34,-25,48
-35,-25,46
-34,-25,47
-36,-26,46
-36,-26,48
-35,-26,48
-34,-25,46
-35,-25,47
-36,-25,47
-36,-25,48
-33,-27,45
-34,-27,48
-34,-26,47
-35,-26,45
-38,-25,46
-38,-27,47
-34,-26,46
-34,-26,45
-35,-27,46
-35,-27,47
-35,-26,46
-35,-26,46
-36,-26,45
-37,-26,46
-37,-26,45
-36,-25,46
-34,-25,46
-35,-27,47
-35,-26,46
-35,-26,46
-35,-26,46
-37,-26,46
-35,-26,47
-36,-26,47
-34,-26,47
-34,-26,47
-36,-27,46
-37,-26,45
-36,-26,45
-36,-26,45
-36,-26,45
-36,-26,45
-37,-26,47
-36,-26,46
-36,-26,46
-37,-26,45
-37,-26,46
-37,-26,46
-33,-27,48
-31,-27,45
-36,-27,45
-38,-27,45
-37,-26,46
-35,-25,46
-34,-25,47
-33,-25,47
-34,-25,48
-35,-25,49
-34,-26,48
-33,-26,47
-33,-26,47
-33,-26,47
-33,-26,47
-34,-26,47
-35,-25,47
-34,-26,47
-32,-26,46
-35,-26,48
-34,-26,48
-34,-25,47
-37,-25,46
-36,-26,46
-37,-26,47
-37,-25,47
-35,-26,47
-36,-25,47
-37,-26,45
-37,-26,46
-37,-25,47
-35,-26,46
-36,-25,46
-36,-26,45
-36,-26,45
-36,-25,46
-36,-25,46
-37,-25,47
-36,-25,46
-37,-25,46
-36,-25,46
-35,-25,46
-35,-25,46
-36,-25,46
-37,-25,46
-35,-24,46
-36,-25,46
-37,-25,47
-36,-25,47
-36,-24,46
-36,-25,46
-36,-25,46
-36,-25,45
-37,-25,46
-36,-25,46
-36,-25,46
-36,-24,46
-37,-25,47
-36,-25,47
-36,-25,46
-36,-25,43
-37,-25,47
-34,-24,47
-36,-24,46
-36,-25,47
-36,-25,47
-37,-25,45
-37,-25,46
-36,-25,46
-36,-25,46
-36,-24,47
-36,-24,47
-37,-24,46
-38,-24,46
-38,-24,46
-37,-24,46
-38,-24,46
-37,-24,47
-35,-25,47
-35,-25,48
-36,-25,46
-38,-25,45
-37,-24,46
-36,-24,46
-36,-24,47
-37,-24,46
-37,-24,47
-37,-24,47
-36,-24,46
-36,-24,46
-37,-24,46
-37,-24,46
-38,-24,47
-36,-24,46
-37,-24,46
-38,-24,46
-38,-24,46
-38,-24,45
-38,-25,45
-37,-25,45
-38,-25,45
-38,-25,46
-37,-25,46
-38,-24,47
-38,-24,45
-39,-23,45
-36,-23,46
-36,-22,46
-33,-22,45
-36,-21,46
-38,-22,47
-39,-23,48
-37,-23,46
-34,-23,46
-38,-23,46
-38,-24,47
-34,-24,47
-34,-24,46
-38,-23,45
-38,-24,47
-36,-24,48
-36,-23,46
-36,-23,46
-36,-24,48
-34,-24,48
-37,-24,47
-38,-23,47
-37,-23,47
-35,-23,47
-35,-23,48
-35,-23,48
-35,-23,49
-36,-23,48
-38,-23,47
-36,-23,47
-35,-23,46
-35,-24,47
-35,-23,47
-36,-23,47
-36,-23,47
-36,-23,48
-36,-23,48
-36,-23,48
-36,-23,48
-36,-24,47
-36,-24,48
-35,-23,47
-36,-23,46
-35,-24,47
-36,-24,47
-36,-24,47
-35,-24,47
-36,-23,47
-36,-24,47
-38,-24,46
-39,-24,48
-37,-24,48
-36,-24,48
-35,-24,47
-33,-24,48
-33,-23,49
-32,-24,49
-34,-24,49
-35,-24,49
-37,-23,49
-35,-24,48
-35,-24,48
-36,-23,45
-36,-23,45
-37,-23,47
-35,-24,48
-34,-23,48
-33,-24,48
-33,-24,49
-34,-24,48
-35,-23,48
-36,-23,47
-35,-23,48
-35,-23,48
-35,-23,48
-34,-24,48
-34,-24,47
-35,-24,48
-35,-24,48
-35,-24,47
-34,-24,47
-34,-25,49
-32,-24,49
-33,-24,48
-35,-23,48
-34,-24,48
-35,-23,48
-35,-23,48
-36,-23,48
-34,-24,48
-34,-24,48
-34,-24,48
-34,-23,48
-36,-24,48
-35,-24,48
-34,-23,48
-34,-24,48
-34,-24,47
-36,-24,48
-35,-24,49
-34,-23,49
-34,-23,49
-34,-24,48
-34,-24,48
-34,-24,48
-35,-24,48
-34,-23,48
-35,-23,48
-35,-23,48
-35,-24,48
-35,-23,48
-35,-23,48
-34,-24,48
-34,-24,48
-34,-23,48
-34,-24,48
-35,-23,48
-35,-23,48
-34,-24,48
-35,-24,48
-35,-23,48
-35,-23,47
-35,-24,48
-34,-24,49
-34,-24,48
-35,-23,48
-35,-24,48
-34,-23,48
-35,-23,48
-35,-23,48
-35,-23,48
-35,-23,48
-35,-24,48
-35,-24,48
-35,-23,48
-34,-23,47
-35,-23,47
-34,-23,48
-35,-23,48
-36,-23,48
-36,-23,48
-36,-23,48
-35,-23,48
-35,-23,48
-36,-23,47
-35,-24,47
-35,-23,47
-36,-23,47
-35,-23,47
-35,-22,47
-35,-22,47
-35,-22,47
-36,-23,48
-36,-23,47
-36,-23,48
-36,-23,47
-37,-23,47
-36,-23,48
-36,-23,47
-35,-22,47
-35,-23,47
-36,-23,46
-39,-23,48
-36,-24,48
-35,-24,47
-35,-24,47
-35,-24,46
-36,-24,46
-35,-24,48
-37,-23,47
-39,-22,47
-37,-23,48
-34,-23,48
-36,-23,47
-36,-23,49
-35,-23,49
-36,-23,47
-35,-23,48
-34,-23,48
-35,-23,48
-37,-22,47
-37,-22,47
-36,-23,47
-36,-23,48
-36,-22,48
-36,-23,47
-36,-23,47
-36,-23,47
-35,-22,48
-35,-22,48
-37,-22,47
-36,-22,47
-37,-22,47
-39,-22,46
-37,-23,47
-36,-23,47
-36,-23,47
-35,-23,48
-35,-22,48
-36,-22,48
-36,-22,48
-36,-22,48
-36,-22,48
-36,-22,48
-35,-22,48
-35,-22,48
-37,-24,47
-42,-22,47
-37,-23,48
-36,-23,47
-35,-23,47
-35,-24,45
-36,-24,44
-36,-23,44
-36,-22,45
-36,-22,46
-33,-24,48
-35,-24,48
-38,-25,51
-32,-24,52
-32,-23,48
-34,-24,52
-33,-25,53
-36,-24,48
-35,-24,48
-36,-24,47
-35,-25,47
-34,-24,47
-33,-25,47
-34,-24,47
-35,-24,47
-35,-24,48
-35,-24,49
-35,-24,48
-35,-23,47
-36,-24,47
-35,-24,48
-35,-24,48
-35,-23,48
-36,-23,47
-35,-23,47
-36,-23,48
-35,-23,48
-35,-24,48
-35,-24,48
-35,-24,48
-36,-23,48
-35,-23,48
-35,-24,47
-35,-23,48
-35,-23,48
-35,-23,47
-35,-23,47
-36,-24,48
-35,-24,48
-35,-23,48
-35,-23,47
-35,-23,48
-35,-23,48
-35,-23,48
-35,-23,47
-35,-24,49
-35,-23,49
-35,-23,48
-35,-24,48
-35,-24,48
-35,-24,47
-35,-23,47
-35,-23,48
-35,-23,48
-36,-23,48
-35,-23,48
-35,-23,47
-35,-23,47
-36,-24,48
-35,-24,48
-35,-23,48
-35,-24,47
-35,-24,48
-35,-23,47
-36,-23,47
-36,-23,48
-36,-23,48
-36,-23,48
-35,-23,47
-36,-24,47
-35,-23,47
-36,-23,46
-36,-24,46
-35,-24,48
-35,-24,48
-36,-23,47
-36,-24,47
-36,-24,47
-36,-24,48
-36,-23,48
-35,-24,47
-36,-23,47
-36,-24,47
-36,-23,47
-36,-24,47
-36,-23,47
-36,-23,47
-36,-23,46
-37,-24,47
-37,-24,47
-37,-24,46
-35,-24,46
-36,-24,47
-35,-24,47
-36,-24,47
-36,-24,47
-36,-24,47
-36,-24,48
-36,-24,48
-34,-23,47
-35,-23,48
-36,-23,47
-36,-23,47
-36,-23,47
-35,-24,47
-36,-24,47
-36,-24,47
-35,-24,47
-36,-24,47
-36,-24,47
-36,-24,47
-35,-23,47
-34,-24,45
-37,-23,47
-37,-24,47
-35,-24,47
-37,-24,47
-35,-23,48
-36,-24,48
-35,-24,50
-37,-23,46
-38,-24,46
-38,-24,47
-39,-23,48
-37,-24,46
-35,-23,47
-35,-24,46
-36,-25,47
-35,-24,47
-35,-25,46
-36,-25,47
-37,-23,47
-37,-24,48
-36,-23,48
-35,-24,48
-36,-24,47
-37,-25,45
-38,-25,45
-36,-24,48
-36,-23,46
-36,-23,47
-36,-23,47
-36,-23,46
-36,-24,47
-36,-23,48
-35,-23,47
-38,-24,47
-36,-24,48
-36,-24,47
-36,-24,47
-34,-23,46
-34,-22,46
-36,-22,45
-35,-25,48
-39,-25,48
-35,-25,47
-34,-24,46
-38,-25,46
-35,-25,48
-34,-24,47
-36,-24,46
-35,-25,47
-35,-24,47
-35,-24,46
-37,-25,47
-34,-25,48
-35,-25,47
-36,-25,47
-35,-25,48
-36,-24,47
-36,-24,47
-35,-24,47
-35,-25,47
-36,-25,46
-35,-25,46
-36,-25,47
-35,-24,47
-36,-24,46
-36,-24,46
-37,-24,47
-36,-24,46
-37,-24,45
-36,-25,45
-35,-27,47
-34,-25,48
-34,-25,48
-35,-24,48
-37,-24,47
-36,-25,48
-39,-24,47
-34,-23,44
-39,-24,46
-37,-24,46
-39,-23,44
-37,-24,47
-37,-26,48
-34,-26,49
-35,-24,44
-35,-25,45
-35,-26,48
-34,-26,48
-35,-25,46
-35,-25,46
-36,-25,46
-37,-24,46
-36,-24,47
-36,-24,47
-35,-25,48
-35,-24,47
-34,-24,47
-34,-24,48
-34,-25,48
-36,-24,47
-35,-24,47
-35,-24,47
-35,-24,48
-36,-24,48
-37,-24,47
-37,-24,47
-35,-24,46
-35,-24,47
-35,-24,47
-34,-24,47
-35,-24,47
-35,-25,47
-37,-24,46
-35,-24,47
-36,-24,47
-36,-24,47
-38,-24,46
-35,-24,46
-40,-24,47
-36,-24,47
-32,-25,47
-31,-27,47
-33,-25,49
-32,-25,48
-32,-24,49
-30,-24,50
-31,-24,51
-32,-24,51
-30,-24,50
-32,-24,49
-31,-25,49
-32,-25,48
-31,-25,50
-27,-25,48
-32,-23,50
-33,-23,49
-33,-24,48
-34,-24,51
-32,-24,51
-36,-24,47
-36,-24,50
-32,-23,52
-26,-23,46
-39,-25,51
-34,-24,47
-35,-24,45
-34,-25,46
-34,-26,47
-33,-24,49
-32,-24,49
-33,-24,49
-35,-24,49
-35,-23,48
-34,-24,49
-34,-24,49
-34,-24,48
-34,-23,48
-34,-24,48
-35,-24,48
-35,-24,48
-34,-24,47
-35,-24,46
-37,-24,47
-35,-23,48
-34,-23,49
-35,-23,48
-35,-23,49
-35,-23,49
-35,-23,48
-35,-23,48
-35,-23,48
-35,-23,48
-34,-24,47
-35,-24,48
-35,-23,47
-34,-23,48
-34,-23,48
-35,-23,48
-36,-23,48
-35,-23,47
-35,-23,47
-35,-23,48
-35,-23,48
-35,-23,49
-35,-23,48
-35,-23,47
-34,-23,48
-34,-23,47
-36,-24,48
-37,-23,49
-34,-23,49
-35,-23,48
-35,-23,48
-36,-23,48
-37,-23,47
-35,-23,48
-35,-23,47
-36,-23,48
-35,-23,47
-35,-23,47
-36,-24,47
-36,-23,48
-35,-23,47
-36,-23,47
-35,-23,47
-36,-23,48
-36,-24,48
-36,-23,47
-36,-23,47
-35,-23,47
-35,-23,47
-36,-23,47
-36,-23,47
-35,-23,47
-35,-23,47
-36,-23,47
-36,-23,47
-36,-23,48
-36,-23,48
-36,-23,47
-36,-23,48
-36,-23,48
-36,-23,47
-36,-23,48
-36,-23,47
-36,-23,47
-36,-22,47
-36,-23,47
-36,-22,47
-38,-22,47
-36,-23,47
-36,-23,47
-37,-23,46
-35,-23,48
-34,-23,47
-36,-22,47
-36,-23,48
-35,-24,49
-33,-24,49
-35,-23,48
-35,-24,48
-35,-24,48
-35,-24,46
-34,-23,49
-35,-23,48
-37,-23,47
-37,-23,47
-34,-23,49
-33,-24,50
-37,-23,47
-34,-24,48
-37,-23,48
-35,-23,47
-36,-23,47
-36,-24,47
-35,-24,48
-35,-24,47
-34,-24,48
-34,-24,48
-36,-24,47
-36,-23,47
-35,-23,48
-35,-23,47
-35,-23,47
-35,-23,48
-36,-23,48
-35,-23,48
-36,-23,47
-36,-23,47
-35,-23,48
-36,-23,48
-35,-23,47
-36,-23,47
-35,-23,47
-36,-23,47
-36,-24,47
-36,-24,47
-36,-23,47
-35,-23,47
-35,-23,47
-36,-23,47
-36,-23,47
-36,-23,47
-36,-24,48
-36,-23,47
-36,-24,47
-36,-23,47
-34,-24,47
-36,-23,46
-36,-24,47
-36,-23,47
-36,-23,47
-36,-24,47
-37,-24,47
-36,-23,47
-36,-24,47
-36,-24,47
-37,-24,47
-36,-24,47
-36,-24,47
-36,-24,47
-36,-24,47
-37,-24,46
-36,-23,47
-36,-24,47
-36,-24,47
-35,-24,47
-35,-24,47
-36,-24,47
-36,-24,46
-36,-24,46
-37,-24,47
-36,-24,47
-37,-24,47
-35,-24,47
-36,-24,47
-35,-24,47
-36,-24,46
-37,-24,46
-37,-24,47
-37,-24,47
-38,-24,46
-35,-24,47
-34,-24,46
-35,-24,46
-36,-25,46
-35,-25,46
-36,-25,47
-37,-24,47
-35,-24,47
-35,-24,47
-35,-24,47
-36,-24,48
-35,-24,47
-36,-24,46
-37,-25,47
-34,-25,47
-35,-24,47
-35,-25,47
-35,-24,48
-36,-24,48
-36,-25,48
-32,-25,48
-32,-24,47
-32,-25,49
-33,-25,49
-33,-24,49
-33,-24,49
-33,-25,49
-32,-24,49
-31,-24,49
-30,-24,49
-34,-24,48
-34,-25,49
-33,-25,50
-31,-24,49
-32,-25,49
-33,-25,49
-32,-25,49
-32,-24,49
-33,-24,49
-34,-24,49
-34,-24,48
-33,-24,47
-33,-24,48
-33,-25,48
-33,-25,49
-32,-24,49
-36,-23,49
-36,-23,49
-34,-24,48
-35,-24,48
-34,-24,48
-34,-25,48
-35,-24,48
-34,-24,48
-35,-24,48
-35,-24,48
-36,-24,47
-36,-24,46
-36,-24,46
-36,-24,47
-35,-24,47
-36,-24,47
-36,-24,46
-36,-24,47
-36,-24,47
-36,-24,47
-35,-24,48
-35,-24,47
-35,-24,46
-36,-24,47
-36,-24,46
-36,-24,46
-36,-24,47
-36,-24,47
-37,-24,47
-38,-24,47
-36,-24,47
-36,-23,46
-37,-24,46
-38,-24,47
-36,-24,46
-36,-24,46
-36,-24,47
-36,-24,47
-36,-24,47
-37,-24,47
-36,-24,47
-36,-24,46
-36,-24,47
-36,-24,46
-37,-24,46
-36,-25,46
-36,-24,46
-37,-24,47
-37,-24,47
-37,-24,46
-36,-24,46
-36,-24,46
-38,-23,45
-33,-25,48
-32,-24,47
-35,-24,46
-40,-24,47
-38,-24,47
-37,-24,47
-34,-24,46
-36,-24,47
-36,-24,47
-35,-24,47
-36,-24,47
-38,-24,46
-38,-23,46
-37,-24,46
-35,-24,46
-35,-24,47
-38,-24,47
-37,-24,46
-38,-24,46
-37,-24,46
-36,-24,47
-35,-24,46
-35,-24,46
-37,-24,46
-36,-24,47
-36,-24,46
-37,-24,46
-37,-24,47
-36,-24,47
-35,-24,46
-35,-25,47
-36,-25,46
-36,-24,46
-36,-24,46
-35,-25,46
-35,-25,46
-35,-25,47
-36,-25,47
-35,-25,47
-36,-25,47
-37,-26,46
-36,-25,46
-35,-25,46
-36,-24,46
-34,-25,47
-34,-25,48
-36,-24,47
-34,-26,47
-36,-26,47
-35,-25,48
-33,-26,48
-33,-26,47
-34,-24,45
-39,-25,45
-32,-27,46
-41,-25,42
-40,-26,44
-34,-27,46
-36,-27,45
-37,-27,47
-35,-25,48
-33,-25,46
-38,-25,44
-37,-26,46
-31,-26,45
-37,-27,43
-42,-29,45
-39,-27,45
-39,-26,44
-36,-27,45
-35,-27,46
-37,-27,46
-37,-26,44
-36,-27,45
-38,-26,43
-38,-27,44
-37,-28,45
-36,-27,45
-37,-27,45
-37,-27,45
-38,-27,44
-37,-27,44
-37,-27,45
-37,-27,45
-37,-27,44
-37,-26,45
-37,-27,45
-38,-27,45
-37,-26,44
-37,-26,44
-38,-27,44
-37,-27,44
-37,-26,44
-38,-27,45
-39,-27,46
-38,-26,44
-37,-26,44
-37,-26,45
-38,-26,46
-36,-26,44
-37,-27,43
-37,-28,46
-39,-28,45
-40,-28,45
-38,-28,43
-37,-29,44
-36,-30,42
-38,-29,41
-38,-28,40
-39,-28,42
-38,-29,44
-40,-30,46
-37,-31,47
-42,-29,44
-39,-29,45
-41,-30,44
-43,-31,45
-43,-32,45
-42,-32,47
-43,-32,49
-44,-29,44
-47,-25,43
-47,-24,44
-48,-23,45
-52,-22,46
-67,-14,36
-71,-8,30
-67,1,27
-65,6,24
-59,6,21
-50,12,16
-50,16,11
-47,19,7
-41,23,1
-42,26,-1
-45,29,-3
-44,30,-4
-42,33,-3
-45,36,-2
-50,38,-2
-50,42,-3
-48,42,-2
-43,39,2
-44,39,1
-52,39,-1
-51,41,-2
-49,42,-4
-40,41,-5
-29,37,-5
-18,28,-7
-19,22,-12
1,13,-1
-22,0,13
-49,10,29
-35,-25,43
-59,-29,62
-55,-30,77
-67,-28,79
-53,-25,66
-43,-27,62
-47,-29,60
-37,-32,58
-35,-32,54
-38,-29,56
-34,-31,61
-33,-32,53
-37,-29,45
-33,-29,45
-31,-29,45
-32,-30,46
-33,-29,46
-34,-29,47
-32,-29,44
-34,-30,44
-36,-30,44
-35,-30,45
-35,-29,45
-35,-29,46
-35,-29,46
-35,-28,46
-36,-29,44
-36,-29,46
-36,-28,46
-37,-28,45
-36,-28,43
-36,-28,43
-35,-29,44
-36,-29,45
-36,-29,44
-36,-28,45
-36,-28,45
-37,-28,45
-37,-28,45
-35,-28,45
-34,-28,44
-35,-28,42
-36,-29,42
-38,-29,42
-36,-29,47
-35,-28,46
-35,-28,45
-35,-28,46
-36,-28,46
-32,-28,46
-36,-28,45
-37,-28,46
-34,-27,43
-37,-28,42
-38,-27,44
-36,-28,44
-35,-28,45
-35,-28,45
-37,-29,46
-36,-28,43
-36,-27,43
-36,-27,46
-36,-28,46
-36,-27,44
-37,-28,44
-37,-28,44
-36,-27,45
-36,-27,44
-37,-28,44
-37,-28,45
-36,-28,45
-36,-28,44
-36,-27,44
-37,-28,45
-36,-28,45
-37,-27,44
-37,-27,44
-37,-27,44
-37,-28,45
-36,-27,45
-37,-27,45
-38,-28,45
-36,-27,45
-36,-28,44
-36,-27,44
-36,-28,44
-36,-27,44
-37,-28,44
-36,-28,45
-36,-28,45
-36,-28,45
-37,-28,44
-36,-28,45
-36,-28,45
-36,-28,44
-36,-28,43
-36,-28,44
-36,-28,44
-36,-29,45
-37,-28,45
-36,-28,46
-36,-28,45
-36,-28,45
-36,-28,45
-36,-28,45
-36,-28,44
-36,-29,44
-36,-29,44
-36,-29,44
-36,-29,44
-36,-28,44
-37,-28,45
-37,-28,45
-36,-28,44
-36,-28,44
-36,-28,44
-36,-28,44
-35,-28,44
-35,-28,44
-36,-28,44
-36,-28,45
-36,-28,45
-37,-28,45
-36,-28,45
-36,-28,45
-38,-27,43
-36,-27,44
-38,-28,44
-38,-29,45
-34,-28,46
-35,-27,44
-38,-28,43
-36,-28,45
-35,-27,45
-36,-27,44
-37,-27,44
-36,-28,46
-35,-28,46
-36,-28,45
-38,-28,45
-37,-28,45
-36,-28,44
-36,-27,44
-37,-27,44
-37,-28,45
-37,-28,45
-36,-27,44
-36,-28,44
-36,-28,45
-36,-28,45
-36,-27,45
-36,-27,45
-36,-28,45
-36,-27,45
-36,-28,45
-35,-28,45
-36,-28,45
-36,-27,45
-37,-26,44
-37,-26,44
-36,-27,44
-36,-28,45
-36,-28,45
-36,-28,45
-37,-28,45
-36,-27,45
-36,-27,45
-36,-27,45
-36,-27,45
-36,-27,44
-36,-28,45
-36,-28,45
-36,-28,45
-36,-28,45
-36,-27,45
-35,-27,44
-36,-28,44
-36,-28,45
-36,-28,45
-37,-28,44
-37,-28,45
-31,-27,45
-31,-27,45
-36,-29,46
-38,-28,43
-36,-29,44
-36,-29,47
-35,-28,47
-34,-28,46
-33,-28,46
-35,-28,45
-36,-28,44
-35,-28,44
-34,-28,45
-34,-28,45
-35,-28,45
-34,-29,46
-34,-29,48
-35,-25,44
-38,-26,40
-36,-28,48
-37,-27,47
-39,-26,47
-34,-28,47
-34,-28,45
-34,-28,45
-33,-29,46
-32,-28,46
-33,-28,46
-33,-28,47
-34,-29,47
-35,-28,46
-35,-27,46
-34,-27,46
-34,-27,47
-35,-27,46
-36,-27,46
-35,-27,45
-35,-28,46
-33,-28,46
-32,-27,47
-35,-26,47
-36,-26,47
-37,-26,45
-38,-27,43
-37,-28,43
-36,-27,45
-35,-27,46
-36,-28,44
-36,-28,44
-35,-27,47
-36,-26,46
-36,-26,45
-36,-27,45
-36,-27,45
-36,-28,46
-36,-28,45
-35,-28,45
-36,-28,45
-36,-27,45
-36,-27,44
-37,-27,44
-37,-27,46
-36,-27,47
-36,-26,45
-36,-28,44
-36,-27,45
-36,-28,45
-36,-27,45
-36,-27,45
-36,-26,46
-36,-27,45
-36,-27,44
-37,-27,44
-36,-27,45
-36,-28,45
-37,-28,45
-36,-27,45
-36,-28,44
-36,-27,42
-37,-28,41
-37,-28,46
-36,-27,45
-36,-27,44
-36,-27,46
-36,-28,46
-38,-27,43
-38,-27,44
-36,-28,45
-36,-27,45
-36,-27,45
-36,-27,45
-36,-28,45
-36,-28,44
-36,-28,45
-37,-28,45
-37,-28,45
-37,-28,44
-37,-27,44
-36,-27,45
-37,-27,44
-36,-27,45
-36,-27,45
-36,-27,45
-36,-27,45
-37,-28,45
-37,-28,45
-36,-27,45
-37,-27,44
-36,-27,45
-36,-27,45
-37,-27,44
-38,-28,45
-38,-27,44
-37,-27,44
-37,-27,44
-37,-27,45
-36,-27,45
-36,-27,45
-36,-27,44
-36,-28,44
-36,-28,45
-36,-27,44
-37,-27,44
-37,-27,45
-37,-27,44
-37,-27,45
-37,-27,45
-37,-27,45
-37,-27,45
-37,-27,44
-37,-27,44
-36,-27,44
-36,-28,45
-37,-28,45
-37,-28,45
-36,-28,45
-37,-27,44
-36,-27,44
-36,-27,45
-37,-27,44
-37,-27,45
-37,-27,44
-36,-27,44
-37,-27,44
-37,-27,44
-37,-27,44
-37,-27,44
-37,-27,44
-38,-27,44
-38,-28,44
-38,-28,45
-38,-27,45
-38,-27,45
-37,-27,44
-37,-27,44
-36,-28,44
-37,-27,44
-37,-27,44
-37,-27,45
-37,-28,44
-37,-27,44
-37,-27,44
-38,-27,44
-38,-27,44
-38,-26,45
-38,-26,44
-37,-26,45
-37,-26,44
-38,-26,44
-38,-26,44
-38,-26,44
-38,-26,46
-34,-28,44
-41,-27,45
-39,-27,43
-39,-27,45
-33,-26,44
-36,-26,45
-37,-27,44
-35,-26,45
-38,-27,45
-37,-26,46
-37,-26,45
-37,-26,46
-37,-26,45
-37,-26,45
-35,-27,44
-36,-27,43
-38,-28,44
-39,-26,45
-36,-26,44
-39,-26,45
-37,-26,46
-37,-24,45
-39,-24,41
-37,-26,47
-39,-26,46
-40,-26,45
-39,-25,46
-37,-24,46
-36,-25,43
-35,-26,44
-35,-27,45
-35,-27,45
-35,-27,45
-36,-27,47
-37,-26,47
-35,-25,47
-35,-24,46
-36,-25,46
-36,-25,46
-35,-25,46
-37,-25,45
-36,-25,45
-37,-26,46
-37,-26,46
-36,-26,46
-36,-25,45
-36,-25,45
-36,-25,45
-36,-25,46
-36,-25,46
-36,-25,46
-36,-25,45
-36,-25,46
-38,-25,46
-39,-26,47
-38,-25,46
-36,-24,46
-40,-27,50
-41,-29,53
-39,-29,50
-40,-30,48
-45,-33,55
-44,-36,56
-42,-37,53
-41,-40,54
-41,-39,52
-39,-39,51
-39,-38,50
-38,-35,42
-33,-34,41
-32,-30,38
-30,-26,36
-28,-24,36
-28,-21,35
-30,-19,35
-33,-17,38
-32,-17,40
-39,-20,42
-44,-21,44
-45,-21,43
-47,-22,44
-48,-22,45
-47,-20,42
-47,-20,40
-46,-19,41
-45,-20,40
-46,-20,40
-48,-22,39
-47,-22,40
-43,-22,38
-42,-21,37
-41,-21,35
-40,-20,36
-40,-19,36
-41,-20,37
-43,-20,37
-43,-22,42
-40,-23,41
-40,-23,40
-42,-22,40
-40,-22,40
-35,-21,40
-35,-21,41
-39,-22,41
-38,-24,41
-37,-25,44
-36,-25,44
-35,-25,42
-39,-28,43
-36,-29,43
-32,-28,40
-38,-29,41
-38,-31,41
-34,-31,41
-36,-31,41
-37,-33,42
-35,-35,43
-35,-35,43
-36,-36,43
-34,-35,45
-34,-33,44
-35,-31,41
-36,-32,41
-35,-32,42
-36,-32,40
-35,-31,39
-36,-32,41
-33,-34,41
-33,-35,41
-34,-38,42
-31,-37,41
-33,-37,42
-33,-38,38
-33,-37,39
-30,-37,42
-30,-38,42
-31,-39,41
-31,-42,45
-32,-42,44
-32,-40,42
-30,-39,42
-38,-39,35
-36,-39,36
-32,-37,35
-38,-39,33
-30,-39,32
-43,-41,36
-33,-46,38
-39,-50,32
-52,-51,26
-52,-53,27
-58,-49,19
-61,-45,17
-59,-38,15
-62,-35,14
-61,-28,12
-58,-24,10
-61,-20,4
-62,-15,6
-61,-12,2
-68,-10,-2
-68,-4,-5
-65,5,-8
-50,7,0
-53,9,-2
-54,14,-10
-51,15,-9
-47,17,-7
-50,17,-9
-56,16,-14
-54,15,-15
-51,16,-16
-55,18,-22
-60,18,-26
-55,17,-30
-50,19,-29
-53,20,-29
-53,21,-30
-52,21,-29
-52,23,-30
-53,23,-30
-51,23,-28
-51,24,-29
-53,25,-33
-50,24,-30
-48,24,-29
-51,24,-31
-50,24,-30
-49,23,-27
-51,23,-31
-50,24,-31
-49,23,-30
-49,23,-30
-52,23,-34
-52,22,-35
-52,21,-33
-51,22,-34
-51,22,-34
-49,21,-34
-49,20,-33
-48,19,-32
-49,19,-33
-50,21,-35
-51,21,-36
-50,21,-35
-52,22,-36
-51,22,-36
-49,22,-36
-47,23,-35
-46,23,-36
-48,23,-36
-48,23,-36
-48,22,-36
-49,22,-37
-49,23,-36
-48,23,-36
-47,23,-36
-46,24,-36
-46,24,-36
-46,23,-36
-46,23,-36
-46,23,-37
-48,23,-38
-48,22,-37
-48,22,-37
-48,23,-38
-47,23,-37
-47,22,-38
-46,22,-37
-45,22,-37
-46,23,-37
-48,22,-37
-48,22,-37
-48,23,-37
-46,23,-37
-47,22,-34
-48,21,-33
-48,22,-35
-49,21,-37
-49,21,-36
-48,20,-33
-50,21,-35
-50,21,-35
-48,20,-34
-47,19,-34
-49,18,-37
-50,18,-40
-51,18,-41
-49,18,-40
-50,17,-41
-48,18,-40
-47,18,-40
-48,18,-40
-47,18,-39
-46,18,-39
-47,18,-40
-47,18,-40
-47,18,-40
-46,18,-39
-46,18,-40
-46,18,-40
-46,18,-40
-47,18,-42
-48,17,-43
-48,17,-42
-47,18,-40
-47,18,-39
-48,18,-40
-48,18,-39
-48,18,-37
-48,18,-36
-49,18,-36
-49,19,-37
-49,19,-37
-49,19,-36
-49,18,-35
-49,19,-36
-49,19,-35
-48,19,-35
-49,19,-35
-50,18,-35
-50,17,-36
-50,17,-36
-50,18,-36
-50,18,-37
-49,19,-37
-49,18,-37
-49,17,-37
-49,16,-37
-50,17,-37
-51,17,-37
-51,17,-37
-50,17,-36
-50,18,-35
-51,18,-35
-50,18,-35
-51,18,-34
-51,16,-34
-52,15,-33
-50,14,-33
-51,14,-33
-50,13,-35
-50,11,-34
-49,10,-31
-49,11,-30
-50,10,-32
-50,9,-31
-50,8,-28
-51,8,-27
-56,9,-30
-57,9,-27
-43,10,-23
-34,9,-19
-67,7,-20
-56,4,-18
-69,9,-16
-58,7,-3
-64,5,-3
-62,2,-16
-62,4,-17
-59,6,-11
-58,2,-4
-49,1,3
-56,3,4
-47,4,4
-47,6,4
-45,2,15
-59,0,5
-61,-13,30
-43,-20,36
-46,-40,57
-54,-46,64
-48,-51,52
-44,-50,52
-36,-49,56
-32,-46,49
-35,-45,48
-33,-47,54
-28,-46,59
-25,-41,49
-29,-40,45
-30,-40,46
-26,-40,50
-25,-41,49
-26,-40,48
-27,-38,47
-29,-38,39
-31,-38,38
-29,-37,43
-29,-35,43
-29,-34,43
-29,-34,42
-29,-34,41
-30,-34,41
-33,-35,40
-33,-36,42
-32,-36,42
-32,-36,44
-32,-36,43
-33,-37,42
-33,-38,44
-33,-37,44
-32,-36,42
-32,-35,42
-33,-35,42
-32,-34,43
-32,-34,42
-33,-34,43
-31,-35,45
-34,-35,41
-37,-35,41
-38,-34,40
-39,-34,37
-42,-33,34
-43,-33,32
-40,-34,31
-41,-33,22
-55,-30,6
-61,-31,3
-62,-31,-3
-59,-28,-7
-63,-28,-11
-60,-29,-6
-56,-29,-5
-52,-28,-3
-53,-28,-4
-57,-28,-8
-57,-28,-9
-56,-28,-9
-54,-28,-7
-54,-29,-8
-55,-28,-9
-56,-29,-10
-57,-29,-11
-57,-29,-12
-56,-29,-11
-55,-29,-10
-55,-28,-10
-57,-29,-12
-57,-29,-12
-55,-29,-11
-55,-29,-11
-56,-29,-12
-56,-28,-12
-55,-28,-12
-55,-28,-12
-55,-28,-12
-56,-29,-12
-55,-29,-12
-56,-29,-12
-57,-30,-12
-57,-30,-11
-55,-30,-10
-56,-31,-10
-54,-31,-8
-55,-31,-10
-57,-31,-10
-55,-31,-11
-55,-31,-11
-55,-30,-10
-55,-30,-9
-54,-30,-10
-55,-30,-10
-54,-30,-10
-55,-30,-12
-55,-30,-12
-56,-31,-12
-55,-31,-11
-55,-31,-12
-55,-31,-13
-55,-31,-13
-55,-30,-13
-53,-30,-12
-53,-30,-12
-55,-31,-12
-56,-31,-12
-55,-31,-13
-55,-31,-13
-56,-32,-14
-58,-32,-15
-68,-34,-21
-58,-35,-10
-58,-33,-7
-63,-25,-16
-61,-25,-15
-60,-22,-10
-57,-20,-10
-53,-17,-9
-57,-16,-13
-56,-16,-13
-56,-15,-12
-57,-14,-11
-59,-13,-14
-54,-15,-10
-58,-13,-8
-58,-12,-15
-58,-12,-17
-59,-13,-13
-59,-13,-13
-61,-13,-14
-63,-13,-15
-61,-13,-15
-61,-12,-16
-60,-13,-16
-61,-13,-16
-61,-13,-15
-63,-13,-16
-61,-13,-16
-60,-13,-16
-59,-13,-15
-60,-13,-16
-61,-12,-16
-61,-12,-16
-60,-12,-15
-61,-12,-16
-62,-12,-16
-60,-12,-15
-60,-12,-15
-59,-12,-15
-60,-12,-15
-61,-12,-15
-60,-12,-16
-61,-12,-17
-61,-13,-17
-62,-13,-16
-60,-13,-16
-60,-12,-16
-61,-13,-16
-60,-13,-16
-60,-12,-16
-60,-12,-17
-60,-13,-17
-61,-13,-16
-61,-13,-16
-60,-13,-17
-60,-13,-16
-59,-12,-16
-60,-13,-16
-60,-13,-16
-60,-13,-17
-60,-13,-16
-60,-13,-16
-60,-12,-17
-61,-13,-17
-60,-12,-17
-60,-12,-17
-60,-13,-17
-60,-13,-17
-60,-13,-17
-60,-12,-17
-60,-12,-17
-61,-13,-17
-60,-13,-17
-60,-13,-17
-60,-13,-17
-60,-13,-17
-59,-13,-17
-59,-13,-17
-60,-13,-17
-60,-13,-17
-59,-13,-17
-60,-15,-13
-59,-16,-13
-60,-17,-23
-58,-17,-22
-66,-16,-20
-57,-16,-20
-44,-16,-23
-47,-11,-40
-49,-8,-52
-52,-2,-65
-51,-2,-70
-60,-6,-51
-29,-5,-45
-39,-1,-54
-37,-3,-51
-35,-3,-50
-34,-2,-52
-34,-1,-53
-32,1,-55
-29,2,-54
-31,3,-54
-31,4,-53
-29,5,-52
-30,7,-53
-29,6,-51
-30,7,-53
-28,7,-51
-28,8,-52
-30,9,-56
-29,8,-56
-28,8,-55
-28,9,-56
-29,9,-56
-28,9,-56
-28,9,-56
-28,9,-55
-28,9,-56
-28,8,-57
-30,9,-57
-30,9,-56
-31,8,-54
-26,7,-52
-28,8,-53
-27,7,-54
-30,7,-57
-34,6,-58
-33,7,-57
-33,7,-56
-33,7,-56
-33,7,-55
-32,7,-54
-32,7,-54
-32,7,-55
-32,7,-55
-32,7,-55
-32,6,-55
-32,5,-55
-32,6,-55
-31,5,-54
-32,5,-54
-32,5,-54
-31,5,-54
-32,4,-52
-32,5,-52
-31,5,-54
-37,5,-61
-37,6,-63
-34,8,-66
-38,8,-67
-43,7,-66
-37,9,-66
-40,7,-58
-37,7,-55
-35,9,-59
-34,9,-58
-32,8,-55
-33,9,-56
-32,11,-57
-34,10,-53
-37,10,-55
-34,15,-58
-33,16,-56
-32,18,-51
-33,18,-50
-32,20,-47
-33,22,-44
-33,23,-44
-36,23,-41
-37,24,-41
-35,25,-38
-36,25,-37
-39,26,-38
-35,26,-38
-34,27,-35
-37,28,-36
-38,29,-38
-35,30,-39
-33,30,-38
-35,32,-38
-34,34,-38
-34,34,-39
-33,34,-38
-35,34,-39
-39,33,-41
-41,33,-41
-42,31,-37
-48,29,-38
-47,28,-36
-48,28,-33
-48,27,-32
-45,26,-28
-57,26,-26
-55,25,-23
-56,24,-15
-59,25,-15
-54,26,-8
-57,28,-4
-55,30,-2
-49,32,-10
-61,30,-10
-62,25,0
-58,24,1
-54,24,-2
-60,24,-4
-61,24,-6
-57,25,-6
-58,24,-2
-60,24,-2
-60,23,-2
-58,23,-6
-60,23,-10
-62,26,-11
-57,26,-7
-56,26,-5
-51,27,-5
-58,29,-7
-52,28,4
-55,25,3
-60,25,0
-62,26,-6
-58,27,-6
-59,26,-5
-62,25,-5
-58,24,1
-59,23,1
-61,23,0
-59,25,-2
-59,24,-3
-60,25,-3
-61,25,-4
-58,25,-5
-59,25,-6
-59,24,-5
-59,24,-5
-59,25,-5
-59,25,-4
-58,25,-4
-58,25,-4
-59,25,-4
-59,25,-4
-59,26,-4
-59,26,-4
-59,26,-5
-59,26,-4
-59,26,-4
-60,25,-4
-58,24,-3
-57,25,-4
-57,26,-5
-60,27,-11
-61,25,-9
-60,25,-4
-52,26,-5
-56,25,-6
-57,24,-6
-54,24,-5
-55,26,-6
-58,25,-5
-55,26,-13
-67,26,-19
-69,24,-20
-59,26,-22
-54,25,-20
-59,24,-15
-55,23,-15
-56,25,-17
-54,26,-21
-57,25,-20
-58,27,-20
-56,27,-19
-54,27,-20
-56,27,-19
-58,27,-18
-54,26,-15
-54,26,-16
-55,27,-19
-57,27,-20
-57,25,-19
-56,23,-15
-59,25,-16
-59,23,-14
-58,23,-14
-58,24,-14
-57,25,-15
-55,25,-16
-56,24,-16
-57,24,-17
-57,25,-17
-57,25,-17
-58,23,-16
-59,23,-16
-57,23,-16
-57,23,-16
-57,23,-16
-56,24,-16
-57,24,-16
-57,24,-16
-56,24,-16
-57,24,-16
-57,24,-16
-57,24,-16
-58,24,-16
-58,24,-16
-57,24,-16
-57,24,-16
-57,24,-16
-57,25,-17
-57,25,-17
-57,25,-17
-57,25,-17
-56,25,-17
-56,25,-17
-56,25,-17
-57,25,-18
-57,25,-17
-56,25,-17
-57,25,-17
-56,25,-18
-56,25,-18
-56,25,-18
-57,25,-19
-56,25,-18
-56,25,-18
-55,25,-18
-56,25,-18
-57,25,-18
-56,25,-18
-57,25,-17
-57,25,-18
-57,25,-18
-56,25,-18
-56,25,-17
-55,26,-17
-57,25,-18
-56,25,-18
-56,25,-18
-55,25,-18
-56,24,-18
-56,25,-19
-56,25,-18
-56,25,-18
-56,25,-18
-56,25,-18
-56,26,-18
-57,25,-18
-57,25,-19
-56,25,-18
-56,25,-18
-56,25,-18
-56,25,-18
-56,25,-18
-56,26,-18
-57,25,-18
-56,26,-18
-56,26,-18
-57,25,-18
-56,25,-18
-57,26,-19
-56,25,-18
-57,25,-18
-56,26,-18
-56,26,-18
-56,26,-18
-56,26,-18
-56,25,-18
-56,25,-18
-56,25,-18
-56,26,-18
-55,25,-18
-56,26,-18
-56,25,-17
-56,25,-18
-56,26,-17
-55,26,-17
-56,25,-17
-56,25,-18
-56,26,-18
-56,25,-18
-56,25,-18
-56,26,-18
-56,26,-17
-56,25,-18
-56,25,-18
-55,26,-18
-56,25,-18
-56,26,-18
-56,26,-18
-55,25,-18
-56,26,-18
-56,25,-19
-56,25,-19
-54,26,-19
-56,26,-20
-57,26,-21
-58,26,-21
-57,27,-19
-56,27,-17
-57,26,-15
-58,24,-9
-57,25,-8
-58,25,-8
-58,26,-8
-55,26,-6
-58,26,-9
-58,26,-9
-55,25,-7
-55,25,-7
-59,26,-14
-58,25,-15
-56,26,-14
-57,26,-14
-57,26,-14
-58,26,-15
-58,26,-15
-56,25,-15
-55,26,-14
-56,25,-14
-57,26,-16
-59,26,-18
-59,26,-20
-59,26,-19
-57,25,-17
-55,25,-16
-55,26,-18
-56,27,-19
-56,27,-18
-55,26,-18
-54,25,-18
-57,26,-19
-57,26,-18
-57,25,-16
-58,24,-14
-58,25,-14
-57,25,-14
-56,26,-15
-55,26,-13
-57,26,-14
-58,26,-14
-57,26,-13
-57,25,-14
-57,26,-15
-57,25,-14
-59,25,-13
-58,25,-13
-58,25,-14
-58,24,-13
-58,25,-13
-58,25,-12
-57,25,-13
-57,25,-14
-58,25,-14
-59,25,-14
-58,25,-12
-57,25,-12
-57,25,-12
-58,25,-12
-59,24,-13
-58,25,-11
-58,25,-11
-58,25,-11
-58,25,-12
-58,25,-12
-58,25,-11
-58,25,-11
-59,24,-11
-57,25,-11
-57,25,-12
-59,24,-12
-58,24,-11
-58,24,-12
-58,24,-12
-58,24,-11
-58,25,-12
-57,25,-11
-58,25,-11
-58,25,-11
-58,25,-11
-58,25,-11
-58,25,-11
-58,25,-11
-57,25,-11
-58,25,-11
-59,25,-12
-58,25,-12
-57,25,-11
-58,25,-12
-58,25,-12
-58,25,-12
-58,25,-12
-58,25,-12
-58,25,-11
-58,25,-12
-58,25,-12
-58,25,-12
-58,25,-12
-58,25,-12
-58,25,-12
-58,25,-12
-58,25,-12
-57,25,-12
-57,25,-12
-59,25,-12
-57,25,-12
-57,25,-11
-58,25,-12
-58,24,-12
-58,25,-12
-58,25,-12
-58,25,-12
-58,25,-12
-58,25,-12
-58,25,-12
-58,25,-12
-58,25,-12
-58,24,-12
-58,25,-12
-58,25,-12
-58,25,-12
-58,25,-12
-58,25,-12
-58,25,-12
-58,25,-12
-58,25,-12
-57,25,-12
-58,25,-12
-58,25,-12
-57,25,-12
-58,25,-13
-58,25,-13
-58,24,-12
-57,25,-12
-58,25,-12
-59,24,-11
-58,24,-11
-59,24,-11
-59,24,-13
-61,25,-17
-59,27,-19
-56,27,-11
-43,25,-10
-55,26,-6
-63,25,-12
-50,25,-23
-58,25,-22
-57,26,-27
-55,27,-28
-52,28,-29
-53,26,-26
-50,26,-28
-50,26,-30
-49,26,-30
-47,26,-31
-48,26,-32
-47,27,-35
-48,27,-36
-48,26,-36
-46,26,-36
-46,27,-37
-47,27,-35
-46,26,-34
-45,28,-37
-48,27,-37
-47,26,-36
-45,26,-36
-45,26,-36
-47,26,-37
-48,26,-37
-57,26,-40
-63,26,-40
-41,26,-31
-50,28,-21
-54,27,-20
-48,29,-19
-52,29,-23
-79,25,-28
-63,24,-9
-53,25,1
-34,30,16
-39,30,20
-44,31,29
-44,30,30
-46,28,28
-48,30,31
-45,30,33
-45,29,31
-49,29,29
-50,30,30
-47,30,31
-44,30,29
-52,30,26
-52,30,26
-48,30,29
-45,30,29
-50,30,27
-53,30,27
-48,31,29
-44,30,30
-46,30,31
-51,31,29
-46,31,33
-42,31,35
-43,32,33
-48,34,29
-37,35,26
-40,34,29
-43,29,35
-37,26,27
-44,36,17
-46,31,-14
-47,23,-14
-97,22,-9
-71,20,-2
-57,24,-15
-70,25,-22
-56,28,-17
-56,35,-23
-53,35,-28
-61,35,-31
-59,38,-29
-49,37,-21
-53,33,-17
-33,37,-20
-54,27,-13
-50,25,-9
-37,27,-11
-71,32,-27
-46,30,-8
-49,34,-8
-47,33,1
-54,32,-7
-52,26,-10
-49,31,-13
-48,35,-10
-53,43,-10
-48,41,-7
-49,43,-8
-49,45,-5
-53,45,-6
-51,40,-7
-50,41,-5
-49,37,-4
-49,37,-6
-49,40,-3
-51,40,-2
-54,39,-4
-55,37,-2
-56,38,-1
-54,35,4
-53,37,-2
-50,36,-3
-48,36,2
-48,39,3
-52,35,2
-51,34,5
-50,38,6
-54,40,5
-52,35,3
-53,40,-6
-53,34,-12
-53,33,-12
-53,36,-14
-53,27,-11
-50,36,-18
-49,36,-19
-52,34,-12
-51,36,-11
-51,33,-11
-52,34,-12
-53,35,-15
-47,33,-12
-48,32,-15
-43,34,-25
-40,36,-28
-64,26,-32
-12,36,-22
-36,36,-37
-39,34,-38
-34,34,-37
-35,35,-41
-36,35,-43
-36,33,-43
-38,33,-44
-37,33,-43
-36,33,-43
-37,32,-43
-37,32,-42
-38,32,-43
-37,33,-41
-40,31,-40
-41,32,-41
-37,32,-43
-37,31,-42
-39,31,-43
-39,32,-43
-37,32,-43
-35,32,-42
-35,31,-42
-37,31,-42
-37,31,-41
-36,31,-41
-38,31,-41
-38,32,-41
-38,33,-42
-39,32,-42
-39,32,-39
-40,32,-39
-40,33,-41
-37,32,-39
-39,33,-38
-41,33,-40
-40,33,-39
-40,33,-38
-40,33,-38
-40,33,-38
-39,33,-38
-40,33,-38
-39,34,-37
-38,33,-37
-40,34,-39
-39,34,-38
-41,34,-39
-41,33,-37
-42,33,-38
-41,33,-37
-41,33,-37
-43,34,-37
-43,34,-36
-44,34,-35
-45,34,-35
-45,33,-33
-44,33,-30
-45,34,-30
-47,34,-29
-46,34,-28
-46,34,-25
-49,35,-25
-48,35,-23
-47,35,-21
-48,35,-21
-49,35,-20
-48,35,-19
-49,34,-19
-49,35,-21
-50,35,-21
-50,35,-20
-50,35,-21
-49,35,-20
-49,35,-20
-50,35,-20
-50,35,-20
-50,35,-21
-49,35,-20
-49,35,-20
-49,35,-21
-50,35,-22
-50,35,-21
-49,35,-21
-49,35,-21
-50,35,-21
-49,35,-21
-50,36,-22
-48,35,-21
-49,36,-21
-49,36,-22
-49,35,-23
-49,35,-21
-49,36,-21
-49,36,-21
-50,35,-23
-50,35,-23
-48,35,-22
-47,36,-21
-49,35,-22
-49,35,-22
-50,35,-22
-49,35,-22
-49,35,-21
-49,35,-22
-49,35,-22
-49,35,-23
-49,35,-22
-49,35,-22
-50,35,-22
-49,35,-22
-49,34,-22
-48,35,-23
-48,34,-23
-48,35,-24
-48,35,-24
-48,34,-24
-48,34,-24
-50,33,-23
-49,34,-23
-49,34,-24
-49,35,-24
-50,34,-24
-49,34,-25
-49,34,-25
-49,34,-24
-49,34,-24
-49,34,-24
-49,34,-24
-49,34,-24
-49,34,-23
-48,35,-23
-48,35,-24
-48,34,-24
-49,34,-25
-49,34,-25
-48,35,-24
-48,34,-24
-49,34,-24
-49,34,-23
-49,34,-24
-49,34,-24
-49,35,-24
-49,35,-24
-49,34,-24
-49,34,-24
-49,34,-24
-48,34,-24
-49,34,-24
-50,34,-25
-50,34,-25
-49,34,-24
-49,34,-24
-49,34,-23
-49,34,-24
-51,34,-25
-50,34,-24
-50,34,-24
-48,34,-22
-50,34,-23
-51,34,-23
-50,34,-23
-49,34,-22
-49,34,-22
-50,34,-22
-50,34,-22
-50,34,-21
-51,33,-19
-51,33,-20
-49,34,-19
-51,34,-18
-51,34,-19
-51,33,-19
-51,34,-19
-51,34,-19
-52,33,-21
-52,33,-21
-53,34,-22
-51,34,-21
-50,34,-19
-52,34,-18
-54,33,-19
-51,33,-18
-51,33,-16
-50,34,-15
-47,34,-14
-54,31,-14
-51,33,-14
-50,30,-13
-54,32,-14
-56,30,-14
-57,30,-16
-55,30,-14
-54,31,-16
-56,30,-14
-56,29,-16
-56,29,-15
-55,29,-14
-56,29,-13
-55,30,-13
-56,27,-12
-58,28,-15
-58,26,-12
-57,26,-11
-58,28,-14
-58,27,-12
-55,28,-10
-58,28,-10
-60,27,-13
-60,27,-11
-54,29,-7
-56,28,-7
-56,27,-12
-57,29,-8
-61,29,-9
-50,23,-5
-49,31,-7
-59,30,-10
-53,31,-10
-58,28,-15
-59,32,-14
-59,31,-13
-52,33,-12
-50,36,-11
-54,31,-8
-56,34,-10
-54,32,-11
-47,31,-9
-48,35,-8
-54,35,-11
-52,35,-13
-57,36,-18
-50,34,-15
-51,36,-18
-53,36,-20
-52,36,-20
-47,36,-16
-48,36,-17
-49,35,-16
-51,35,-17
-47,36,-18
-49,36,-17
-50,37,-18
-49,37,-17
-49,36,-17
-50,37,-17
-51,38,-18
-49,37,-17
-50,38,-17
-52,-19,-32
-50,35,-18
-54,29,-15
-52,35,-19
-52,35,-18
-49,36,-17
-53,37,-19
-52,36,-17
-50,34,-14
-52,33,-15
-48,35,-17
-53,36,-23
-50,36,-22
-50,37,-20
-52,35,-21
-49,32,-20
-51,34,-20
-48,35,-20
-50,34,-19
-49,34,-20
-50,33,-22
-52,35,-23
-49,32,-21
-51,34,-21
-55,33,-22
-48,32,-21
-52,33,-20
-53,33,-20
-50,32,-21
-47,31,-21
-53,31,-24
-52,31,-25
-51,31,-27
-51,31,-25
-50,32,-25
-49,31,-26
-49,32,-25
-50,31,-29
-51,30,-29
-49,31,-30
-49,31,-31
-49,30,-30
-48,31,-29
-47,30,-29
-48,30,-29
-47,30,-30
-46,30,-26
-45,28,-26
-49,32,-28
-45,31,-29
-49,31,-29
-47,30,-29
-51,31,-32
-45,30,-34
-47,32,-33
-45,28,-29
-47,31,-32
-47,31,-32
-46,30,-28
-49,31,-27
-46,43,-36
-41,39,-30
-49,34,-29
-45,34,-26
-47,34,-25
-50,34,-27
-47,33,-25
-52,32,-28
-52,34,-29
-45,30,-24
-36,34,-26
-48,34,-29
-52,31,-29
-49,30,-29
-53,31,-31
-53,37,-35
-48,32,-30
-54,67,-29
-30,-4,-28
-42,50,-26
-46,24,-28
-43,37,-31
-42,31,-35
-46,31,-34
-45,30,-31
-45,36,-26
-44,28,-43
-37,46,-49
-39,41,-30
-36,40,-35
-39,30,-33
-40,34,-36
-25,32,-36
-52,39,-38
-43,29,-36
-59,37,-49
-38,38,-51
41,13,-15
-68,20,-46
-57,38,-37
-36,36,-28
-78,14,-27
-55,35,-38
-43,40,-36
-39,26,-30
-43,42,-32
-46,41,-31
-44,38,-25
-41,39,-24
-48,38,-25
-49,32,-18
-49,34,-24
-47,33,-23
-47,34,-24
-46,47,-26
-44,46,-24
-42,34,-16
-40,38,-32
-40,37,-25
-42,40,-22
-43,38,-23
-44,42,-23
-43,43,-24
-41,45,-20
-40,48,-18
-47,49,-20
-49,40,-23
-52,35,-19
-56,34,-23
-50,36,-17
-52,33,-23
-49,31,-31
-49,33,-29
-46,31,-26
-45,34,-28
-42,35,-30
-46,32,-32
-48,36,-36
-43,37,-25
-51,37,-25
-47,37,-23
-41,43,-22
-41,43,-20
-42,39,-16
-43,38,-18
-56,43,-31
-47,43,-27
-47,40,-19
-44,42,-20
-34,45,-19
-39,42,-16
-41,42,-17
-39,44,-23
-40,42,-23
-42,40,-25
-41,40,-26
-56,31,-35
-37,42,-34
-44,33,-37
-41,46,-32
-43,51,-33
-41,37,-40
-41,38,-33
-46,40,-31
-38,38,-28
-40,39,-31
-45,34,-28
-45,30,-28
-40,36,-27
-40,43,-21
-43,39,-19
-45,52,-20
-47,46,-24
-43,37,-24
-44,44,-23
-42,39,-22
-55,39,-25
-40,41,-20
-47,40,-17
-39,43,-13
-45,42,-15
-42,43,-14
-44,43,-16
-45,42,-18
-44,42,-18
-42,44,-17
-42,43,-16
-43,42,-19
-43,42,-18
-44,42,-18
-44,42,-18
-44,42,-17
-45,42,-18
-48,41,-21
-47,39,-21
-45,38,-20
-45,37,-20
-45,37,-21
-47,37,-22
-46,38,-20
-46,38,-20
-50,37,-21
-51,36,-21
-50,37,-21
-50,37,-20
-49,37,-20
-49,37,-23
-51,37,-25
-49,37,-25
-48,36,-22
-47,35,-22
-48,36,-23
-47,35,-23
-48,35,-24
-47,35,-24
-48,35,-24
-48,34,-25
-48,34,-26
-48,34,-26
-48,35,-26
-48,32,-25
-47,32,-25
-50,35,-28
-50,34,-26
-50,33,-25
-48,34,-25
-48,35,-26
-48,34,-26
-47,34,-25
-46,35,-26
-46,35,-25
-47,35,-25
-47,35,-26
-47,35,-26
-47,34,-26
-47,34,-27
-47,34,-27
-47,35,-28
-47,35,-29
-46,35,-29
-45,35,-28
-46,35,-29
-45,34,-29
-45,35,-29
-46,34,-30
-46,34,-31
-46,34,-30
-46,35,-30
-45,35,-29
-45,35,-30
-45,35,-29
-45,35,-30
-45,35,-30
-45,35,-30
-44,35,-31
-44,36,-30
-43,35,-29
-44,36,-29
-44,35,-30
-45,35,-30
-45,35,-32
-45,35,-32
-45,35,-31
-44,35,-31
-43,35,-31
-45,38,-30
-41,24,-27
-48,32,-33
-48,33,-34
-47,34,-33
-45,35,-30
-42,34,-28
-45,35,-30
-47,34,-31
-45,34,-31
-47,34,-30
-47,33,-31
-47,34,-33
-47,34,-30
-45,34,-25
-47,34,-26
-46,34,-27
-48,33,-29
-49,33,-29
-46,34,-26
-47,34,-26
-47,34,-26
-48,34,-27
-49,34,-27
-45,35,-26
-50,35,-28
-47,35,-26
-47,33,-26
-47,34,-27
-47,33,-26
-47,33,-26
-47,33,-26
-48,34,-27
-49,33,-27
-48,33,-27
-46,34,-26
-48,34,-27
-47,34,-27
-48,33,-28
-47,34,-28
-47,34,-28
-47,34,-28
-47,33,-27
-47,34,-27
-47,33,-27
-47,33,-27
-48,33,-28
-48,33,-28
-47,34,-28
-47,34,-28
-47,33,-28
-47,34,-29
-47,33,-29
-47,33,-28
-47,33,-28
-47,33,-28
-47,33,-28
-47,32,-29
-47,32,-29
-47,33,-29
-46,33,-29
-45,33,-29
-45,33,-29
-46,33,-30
-47,33,-31
-46,33,-31
-46,33,-31
-46,33,-31
-46,32,-31
-46,32,-31
-46,31,-31
-46,31,-31
-46,30,-31
-44,28,-31
-44,26,-31
-43,23,-30
-44,21,-30
-45,21,-32
-47,20,-36
-48,20,-37
-49,19,-37
-46,20,-36
-51,19,-39
-49,19,-42
-45,18,-41
-48,18,-43
-49,18,-44
-46,18,-45
-50,18,-47
-50,17,-44
-49,15,-39
-50,13,-36
-50,11,-35
-50,9,-38
-52,10,-42
-50,10,-41
-53,8,-37
-53,9,-34
-52,7,-31
-60,5,-21
-47,8,-17
-68,8,-26
-65,9,-25
-59,11,-20
-51,14,-19
-58,12,-22
-61,6,-12
-58,4,-5
-43,4,1
-43,2,4
-40,-2,9
-34,-7,17
-43,-9,15
-52,-13,12
-49,-13,13
-66,-20,7
-69,-27,-1
-76,-28,-5
-76,-32,-9
-71,-33,-9
-54,-40,-2
-53,-44,-6
-61,-54,-9
-49,-57,-8
-45,-61,0
-42,-67,6
-40,-60,5
-39,-53,6
-32,-55,11
-28,-59,18
-26,-62,17
-29,-60,16
-39,-54,12
-41,-53,11
-30,-57,18
-31,-57,18
-46,-51,12
-30,-55,15
-38,-52,12
-39,-51,11
-41,-50,12
-41,-52,13
-40,-50,11
-34,-49,13
-35,-49,10
-36,-50,9
-41,-51,7
-40,-50,5
-40,-51,6
-39,-50,7
-42,-51,7
-46,-52,7
-42,-54,9
-47,-54,4
-51,-55,2
-40,-60,0
-27,-66,1
-34,-64,-5
-29,-61,-11
-31,-58,-12
-22,-51,-13
-31,-45,-11
-41,-38,0
-60,-22,-8
-60,-21,-12
-54,-18,0
-57,-27,0
-55,-36,-1
-50,-43,1
-45,-47,4
-34,-51,0
-34,-53,-3
-40,-55,-4
-41,-53,-4
-32,-41,-3
-30,-41,0
-28,-38,-3
-34,-46,13
-32,-44,16
-31,-54,16
-37,-62,15
-20,-64,19
-24,-65,10
-29,-66,13
-10,-69,18
3,-70,9
-38,-94,-11
-16,-76,-9
-23,-71,-7
1,-67,2
-6,-63,-6
-28,-54,-14
-25,-56,-9
-15,-50,-8
-17,-51,-11
-34,-60,-20
-26,-60,-19
4,-69,4
-15,-64,-6
-8,-62,-13
-13,-59,-18
-11,-65,-4
-13,-63,-7
-24,-58,-18
-18,-61,-12
-19,-60,-16
-34,-54,-27
-4,-58,-6
-24,-49,-26
-11,-46,-32
-9,-46,-36
-2,-49,-36
21,-58,-28
-14,-59,-28
-10,-70,3
-34,-72,-4
-30,-77,-2
-21,-71,-8
-30,-59,-24
-40,-56,-31
23,-58,-5
-16,-58,-26
-8,-50,-37
-13,-56,-46
3,-67,-31
-24,-61,-26
-14,-47,-30
-12,-42,-28
-25,-32,-20
-34,-56,-26
-37,-47,-31
-28,-64,-8
-15,-70,7
-37,-64,-29
-4,-75,-15
-29,-77,-23
-33,-74,-13
-29,-70,-15
-21,-72,-26
-22,-69,-24
-30,-65,-23
-32,-62,-33
-35,-57,-30
-34,-51,-36
-32,-49,-35
-33,-40,-32
-29,-35,-33
-32,-34,-26
-28,-32,-29
-32,-34,-27
-34,-33,-25
-34,-33,-25
-32,-34,-24
-35,-37,-26
-34,-36,-26
-38,-39,-29
-38,-39,-30
-38,-40,-32
-40,-41,-30
-36,-39,-32
-37,-39,-32
-37,-36,-32
-38,-36,-35
-39,-35,-36
-40,-34,-36
-40,-34,-38
-40,-33,-37
-40,-32,-37
-42,-32,-37
-39,-29,-34
-42,-28,-35
-47,-27,-37
-44,-26,-38
-46,-24,-37
-44,-23,-36
-44,-21,-35
-43,-18,-34
-44,-17,-35
-46,-15,-34
-48,-15,-35
-49,-14,-37
-49,-15,-38
-50,-16,-39
-47,-16,-37
-47,-15,-37
-45,-16,-37
-43,-14,-40
-47,-16,-42
-47,-18,-40
-46,-18,-41
-52,-20,-45
-56,-23,-44
-52,-22,-39
-46,-20,-34
-51,-19,-37
-42,-17,-32
-52,-21,-33
-54,-22,-34
-59,-24,-30
-56,-18,-37
-45,-15,-27
-63,-22,-19
-52,-26,7
-63,-18,6
-94,-17,-19
-80,-15,-30
-51,-4,-45
-61,-8,-22
-66,-8,-18
-56,-4,-15
-58,-2,-21
-62,0,-12
-42,3,-2
-35,-2,2
-38,-28,8
-47,-31,12
-81,-36,-25
-97,-16,-28
-32,-12,-5
-76,-21,-17
-54,-15,-25
-62,-25,-26
-63,-13,-34
-53,-12,-15
-74,-12,-23
-72,-4,-24
-70,2,-23
-76,3,-24
-67,5,-30
-62,4,-29
-57,6,-28
-56,5,-31
-54,7,-34
-55,8,-37
-52,5,-38
-51,1,-39
-43,3,-32
-36,6,-29
-29,5,-28
-29,4,-28
-33,0,-29
-42,-7,-35
-49,-10,-36
-46,-11,-36
-49,-14,-36
-45,-17,-33
-43,-25,-32
-49,-36,-42
-55,-42,-41
-60,-37,-27
-55,-38,-20
-60,-40,-25
-58,-41,-25
-56,-38,-22
-49,-37,-20
-52,-38,-21
-58,-42,-23
-53,-39,-24
-55,-43,-17
-58,-46,-17
-49,-44,-15
-51,-43,-11
-62,-52,-13
-62,-43,-10
-57,-43,-8
-62,-39,-15
-44,-41,-2
-47,-40,4
-59,-42,5
-55,-44,14
-42,-39,16
-49,-41,21
-28,-46,21
-48,-47,25
-46,-50,29
-47,-46,22
-57,-50,18
-40,-65,28
-54,-57,28
-53,-51,20
-53,-37,5
-49,-37,12
-40,-28,25
-38,-20,18
-38,-8,20
-41,-7,26
-39,-10,34
-27,-2,36
-38,-6,33
-32,-1,55
-32,-1,51
-38,-3,58
-33,-6,61
-30,-15,62
-39,-22,59
-32,-26,56
-29,-26,57
-28,-30,58
-32,-33,58
-42,-31,47
-44,-37,42
-36,-36,45
-36,-36,44
-40,-28,38
-36,-26,34
-29,-30,42
-33,-29,40
-30,-34,40
-32,-37,43
-31,-39,44
-35,-41,47
-34,-39,45
-30,-41,48
-28,-42,43
-30,-42,40
-32,-43,46
-33,-42,44
-35,-42,45
-33,-41,46
-32,-38,41
-35,-35,43
-35,-32,46
-22,-29,48
-20,-29,47
-22,-31,60
-22,-32,64
-14,-28,61
-21,-29,68
-23,-30,69
-21,-25,61
-23,-27,54
-26,-27,57
-19,-26,55
-24,-27,49
-24,-26,56
-24,-23,53
-33,-18,49
-31,-16,49
-33,-14,47
-33,-16,50
-35,-14,52
-29,-15,52
-28,-16,54
-28,-18,54
-31,-17,51
-30,-19,49
-34,-17,43
-33,-18,41
-35,-18,37
-39,-16,37
-27,-23,48
-41,-18,30
-42,-16,28
-46,-10,24
-45,-10,25
-55,-11,16
-59,-8,10
-57,-5,0
-60,-5,0
-74,-6,1
-70,-10,7
-73,-6,2
-69,-4,0
-71,-7,-1
-66,-1,1
-65,-3,3
-75,-9,2
-81,-8,-20
-66,-10,-14
-71,-8,-21
-67,-6,-19
-58,-4,-20
-57,-3,-21
-59,-2,-23
-56,-4,-26
-60,-3,-33
-59,-6,-25
-58,-5,-29
-69,-3,-37
-57,-3,-31
-61,-4,-28
-59,-1,-38
-63,1,-39
-66,1,-36
-62,2,-35
-54,3,-36
-52,3,-37
-52,4,-39
-51,6,-37
-46,6,-35
-44,9,-33
-45,10,-33
-44,13,-35
-43,16,-37
-46,17,-37
-47,16,-40
-47,14,-41
-48,15,-41
-45,16,-40
-46,16,-40
-48,17,-45
-49,17,-49
-50,14,-46
-47,13,-40
-46,11,-33
-45,12,-33
-48,13,-35
-55,17,-44
-55,17,-43
-51,16,-37
-52,16,-35
-55,16,-37
-58,16,-41
-58,16,-41
-55,16,-36
-53,17,-36
-57,23,-41
-57,24,-41
-57,19,-34
-52,19,-25
-50,21,-23
-51,22,-24
-51,23,-24
-52,23,-22
-52,23,-21
-51,24,-19
-50,28,-16
-52,28,-16
-55,30,-17
-54,31,-16
-53,31,-15
-53,31,-15
-49,32,-14
-49,34,-16
-49,34,-15
-49,34,-15
-49,34,-16
-49,34,-18
-49,33,-16
-49,34,-16
-48,34,-16
-47,35,-17
-47,36,-17
-49,36,-18
-49,36,-18
-51,35,-19
-53,34,-20
-53,33,-21
-55,32,-21
-55,31,-20
-54,31,-20
-55,30,-21
-57,32,-23
-62,35,-27
-57,27,-27
-54,26,-25
-50,26,-27
-53,26,-30
-51,25,-31
-50,24,-31
-51,21,-31
-44,20,-28
-43,22,-29
-43,25,-36
-43,25,-40
-43,25,-42
-45,23,-44
-46,22,-45
-43,24,-43
-44,25,-42
-46,25,-41
-45,25,-38
-45,26,-36
-47,26,-37
-49,26,-37
-50,25,-34
-51,25,-34
-51,25,-34
-48,27,-33
-50,27,-33
-50,29,-31
-50,29,-29
-49,31,-29
-50,32,-29
-51,32,-31
-54,28,-32
-53,23,-32
-53,22,-29
-55,21,-29
-58,14,-33
-60,11,-37
-66,2,-42
-62,1,-36
-58,2,-33
-53,7,-28
-51,10,-28
-52,14,-31
-50,15,-31
-46,15,-24
-44,18,-23
-45,19,-24
-47,21,-23
-48,22,-23
-50,25,-25
-52,25,-27
-55,24,-29
-59,23,-31
-61,22,-33
-63,20,-41
-66,18,-46
-67,12,-48
-62,8,-43
-56,9,-41
-50,14,-40
-52,15,-42
-55,14,-44
-53,11,-39
-44,9,-29
-46,8,-29
-46,10,-28
-43,13,-25
-44,13,-23
-45,20,-22
-47,25,-20
-52,28,-20
-56,27,-22
-58,26,-24
-59,23,-29
-59,21,-30
-59,16,-30
-59,13,-30
-64,11,-34
-58,8,-35
-56,8,-33
-55,4,-30
-56,1,-26
-59,-2,-29
-50,5,-31
-46,10,-30
-47,17,-27
-45,18,-25
-49,20,-23
-53,20,-23
-60,22,-25
-59,25,-24
-60,26,-25
-64,25,-29
-65,24,-34
-68,22,-39
-69,20,-36
-63,15,-29
-61,5,-20
-62,6,-22
-62,6,-17
-64,5,-14
-59,2,-7
-64,-6,-1
-70,-11,-2
-58,-13,10
-56,-16,14
-46,-15,5
-47,-17,7
-41,-25,23
-35,-29,32
-54,-34,27
-35,-37,27
-34,-37,28
-52,-44,30
-50,-50,33
-48,-57,40
-50,-55,42
-37,-45,35
-42,-51,42
-27,-60,50
-36,-42,33
-28,-38,34
-29,-32,35
-29,-32,37
-35,-35,53
-15,-37,65
-16,-33,74
-28,-24,87
-33,-17,84
-40,-11,68
-47,-11,46
-50,-15,38
-58,-20,26
-53,-24,23
-32,-31,4
-38,-41,9
-47,-54,17
-44,-53,20
-42,-49,32
-35,-34,37
-44,-26,37
-39,-19,35
-47,-18,37
-53,-11,35
-50,-15,43
-50,-9,34
-50,-12,35
-59,-8,34
-54,-5,36
-48,-5,35
-64,-6,32
-53,-7,38
-53,-6,38
-55,-4,33
-58,-6,34
-53,-3,29
-51,1,28
-62,0,30
-54,6,28
-61,7,31
-71,9,32
-71,12,29
-78,13,21
-62,13,28
-39,20,32
-35,26,32
-35,28,35
-22,33,34
-19,31,33
-6,15,35
-13,-2,9
-21,-10,24
-57,-62,99
-85,-51,43
-75,-128,-34
-19,-113,-4
97,-120,66
53,-58,81
49,-53,79
-21,-45,52
-17,-46,56
1,-46,66
-14,-41,59
-37,-34,54
-31,-23,58
-23,-20,59
-27,-15,55
-21,-11,55
-16,-9,53
-21,-7,48
-14,-7,50
-7,-7,61
-12,-9,60
-31,-3,55
-26,1,54
-1,8,52
-6,13,42
-13,17,35
-14,21,29
-39,25,13
-75,44,1
-77,47,-6
-83,54,-20
-59,52,-10
-48,50,-4
-42,46,-2
-43,46,1
-37,37,5
-27,36,9
-25,33,26
-12,51,26
-8,51,33
-31,62,32
-35,56,37
-50,56,24
-35,52,24
-38,49,28
-23,46,42
-27,51,35
-23,54,25
-22,54,22
-24,55,22
-24,56,22
-19,55,25
-23,57,22
-21,59,22
-17,58,22
-16,57,22
-15,55,22
-14,56,24
-14,57,21
-17,58,21
-16,59,20
-13,56,24
-24,58,17
-20,57,22
-20,59,22
-17,60,21
-15,62,20
-14,62,21
-18,60,17
-16,59,18
-14,55,20
-19,55,20
-20,55,17
-21,57,17
-21,58,16
-22,60,13
-21,63,11
-18,60,16
-20,60,14
-22,59,14
-22,59,12
-22,59,10
-21,61,16
-18,58,17
-20,55,23
-23,64,12
-23,62,3
-26,63,4
-14,65,10
-20,59,18
-21,62,17
-19,63,15
-23,57,16
-23,57,16
-19,59,20
-15,58,22
-23,57,16
-17,60,16
-21,60,15
-20,55,19
-16,54,22
-6,56,24
-9,57,24
4,61,23
1,62,26
-5,61,27
-19,57,24
-23,57,21
-20,57,25
-13,57,29
-31,57,10
-10,60,23
-16,60,15
-23,60,15
-15,59,20
-23,60,13
-21,59,15
-22,59,13
-24,59,12
-22,56,16
-23,59,16
-24,61,15
-17,61,12
-23,56,17
-26,61,14
-23,60,13
-21,61,15
-20,58,20
-15,58,22
-22,58,18
-28,56,12
-27,57,11
-13,56,22
-20,54,20
-12,56,21
-11,58,21
-17,58,19
-27,61,16
-24,58,18
-21,58,17
-19,57,19
-23,56,18
-22,58,14
-25,64,8
-22,59,16
-21,59,13
-21,59,12
-22,60,11
-22,60,10
-20,57,12
-25,58,9
-24,61,9
-23,60,11
-22,54,25
-21,51,23
-23,43,14
-10,46,13
-11,41,16
-9,47,15
-21,49,8
-39,51,-10
-42,56,-19
-51,52,-28
-57,56,-41
-50,56,-40
-45,49,-33
-47,47,-32
-40,46,-28
-40,44,-28
-42,43,-28
-40,43,-25
-43,43,-26
-45,41,-25
-49,40,-25
-58,41,-26
-59,38,-20
-53,38,-19
-47,41,-18
-39,44,-13
-22,36,19
-18,37,35
-28,43,32
-60,35,23
-49,37,47
-39,42,22
-37,38,31
-26,34,53
-20,35,49
-27,40,41
-29,43,30
-27,40,29
-41,39,44
-40,39,47
-25,33,54
-30,34,58
-28,34,58
-19,34,55
-20,36,51
-19,42,32
-28,42,32
-52,50,14
-50,49,10
-39,46,23
-37,45,26
-38,44,26
-29,40,24
-29,39,24
-29,42,25
-36,44,20
-15,43,24
-31,45,20
-40,50,14
-47,60,10
-37,57,17
-28,54,19
-34,55,13
-27,56,19
-27,57,18
-29,58,16
-28,55,16
-24,55,17
-27,55,16
-27,56,15
-27,55,15
-26,57,14
-24,60,14
-23,57,20
-24,54,18
-32,46,13
-32,46,16
-36,46,20
-43,39,26
-53,39,23
-60,33,18
-50,29,21
-40,25,19
-46,29,3
-43,28,2
-45,12,10
-49,7,12
-69,-2,5
-89,7,-7
-57,8,7
-85,14,2
-75,13,14
-74,9,8
-75,14,2
-71,12,6
-67,12,3
-67,18,-6
-61,18,-4
-57,17,1
-64,13,-8
-61,8,-10
-52,2,-7
-61,-7,-5
-42,-7,-13
-67,-25,-14
-67,-26,-10
-27,-22,5
-35,-33,4
-74,-36,-6
-38,-50,9
-50,-53,12
-52,-55,15
-46,-56,16
-35,-53,26
-42,-52,18
-46,-55,14
-48,-53,5
-48,-57,9
-44,-57,11
-43,-55,10
-42,-58,17
-37,-59,22
-32,-60,29
-35,-61,31
-34,-62,34
-23,-59,36
-22,-62,32
-49,-57,12
-35,-56,21
-23,-59,30
-21,-61,29
-31,-58,25
-32,-58,22
-32,-60,21
-40,-55,10
-58,-59,4
-41,-59,5
-48,-49,-7
-58,-49,0
-40,-48,3
-50,-38,-7
-49,-40,-3
-49,-34,-5
-48,-32,-6
-50,-35,2
-49,-34,5
-49,-35,7
-54,-35,10
-46,-40,20
-51,-39,17
-48,-43,21
-45,-39,22
-44,-39,23
-45,-39,25
-45,-38,26
-41,-35,23
-53,-38,25
-51,-38,30
-43,-32,28
-44,-27,29
-46,-21,32
-45,-17,30
-40,-17,31
-51,-18,28
-45,-18,30
-43,-22,32
-48,-22,28
-48,-20,29
-45,-24,35
-55,-23,33
-49,-20,35
-40,-20,34
-44,-33,39
-37,-41,43
-40,-48,42
-44,-46,39
-37,-43,45
-49,-39,63
-53,-31,49
-39,-25,44
-43,-26,38
-49,-29,9
-87,-26,-11
-63,-30,-2
-37,-26,25
-61,-18,5
-73,-25,9
-76,-20,8
-59,-14,14
-59,-13,14
-58,-10,12
-54,-9,18
-54,-7,16
-50,-3,9
-55,-2,11
-58,-1,14
-64,0,13
-61,-1,17
-63,0,17
-61,0,16
-58,4,15
-61,5,14
-66,5,15
-71,1,13
-69,1,13
-67,1,9
-58,0,11
-53,0,13
-57,5,10
-58,3,10
-69,-7,17
-64,-8,16
-59,-1,12
-54,5,11
-51,10,15
-55,14,14
-55,14,14
-58,16,15
-60,16,16
-57,21,17
-58,22,17
-60,24,12
-69,22,9
-70,21,6
-72,18,3
-79,23,-1
-79,17,5
-70,21,13
-71,13,6
-53,9,19
-39,15,28
-35,18,37
-30,18,37
-32,16,50
-35,13,53
-32,13,49
-28,11,49
-27,12,52
-23,14,50
-18,15,52
-23,18,47
-37,16,42
-42,16,38
-61,9,22
-68,5,19
-67,-8,19
-65,-13,17
-67,-31,16
-70,-51,21
-77,-56,17
-85,-42,6
-86,-30,4
-94,-2,-2
-107,5,-10
-89,26,-10
-63,47,-15
-68,54,-24
-56,64,-18
-54,58,-17
-80,39,-21
-79,32,-13
-107,16,-10
-128,-6,-4
-128,-20,4
-128,-41,12
-112,-47,7
-61,-48,9
-38,-47,13
-14,-39,18
-22,-33,12
-28,-33,12
-42,-35,12
-56,-34,13
-93,-29,11
-128,-5,-14
-128,11,-14
-121,20,-17
-97,32,-21
-54,60,-24
-45,66,-23
-58,58,-27
-71,44,-33
-84,37,-35
-101,22,-29
-120,13,-28
-128,-7,-16
-128,-12,-7
-117,-27,-3
-68,-33,3
-50,-30,5
-27,-28,4
-18,-25,7
-18,-26,7
-22,-26,7
-35,-22,6
-60,-15,-1
-75,-8,-2
-86,10,0
-110,15,-16
-128,26,-36
-119,33,-23
-79,39,-18
-62,66,-29
-51,77,-28
-45,71,-23
-63,59,-27
-76,41,-22
-84,31,-14
-105,26,-18
-118,4,-5
-110,-9,3
-87,-24,6
-75,-25,5
-52,-30,12
-34,-18,12
-35,-13,10
-32,4,13
-29,13,16
-26,34,20
-37,43,19
-50,46,21
-44,45,25
-38,42,27
-64,29,-5
-80,28,-23
-63,23,-18
-61,23,-15
-55,11,-35
-55,31,-44
-53,20,-46
-47,22,-44
-29,16,-40
-31,17,-52
-38,18,-63
-26,18,-57
-26,15,-56
-26,17,-57
-34,18,-62
-20,18,-58
-31,18,-62
-29,22,-53
-36,20,-52
-33,22,-45
-32,19,-50
-34,18,-52
-37,20,-51
-35,23,-50
-39,20,-46
-43,20,-47
-38,26,-49
-39,25,-49
-40,24,-48
-41,23,-47
-37,24,-40
-39,22,-42
-39,22,-42
-36,21,-40
-38,21,-42
-41,21,-46
-40,21,-43
-40,24,-43
-47,25,-44
-48,28,-39
-44,23,-37
-53,25,-39
-50,24,-35
-53,7,-15
-46,32,-23
-54,6,-32
-58,20,-32
-40,42,-25
-45,-2,-32
-58,28,-27
-60,14,-28
-58,18,-26
-52,20,-21
-56,19,-25
-58,18,-24
-58,20,-25
-53,19,-22
-56,20,-25
-52,19,-24
-56,20,-27
-58,21,-28
-54,21,-27
-55,22,-29
-52,24,-25
-54,22,-24
-51,24,-27
-52,23,-25
-54,24,-27
-52,24,-27
-52,25,-28
-51,25,-27
-51,25,-29
-50,25,-30
-53,25,-28
-51,26,-26
-49,29,-28
-54,27,-30
-46,28,-29
-50,25,-26
-52,24,-29
-55,24,-32
-53,10,-53
-54,27,-30
-48,25,-26
-48,26,-29
-51,27,-32
-52,26,-30
-56,25,-38
-49,23,-36
-46,23,-31
-49,24,-32
-48,22,-35
-51,23,-41
-44,18,-37
-47,22,-36
-50,24,-36
-45,26,-28
-53,7,-31
-56,23,-34
-45,17,-33
-52,16,-36
-54,21,-42
-55,25,-45
-51,22,-42
-39,19,-36
-47,22,-40
-50,25,-38
-58,-1,-31
-52,25,-36
-51,20,-39
-78,16,-34
-49,44,-20
-63,14,-24
-50,7,-24
-31,33,-11
-57,21,-4
-57,18,-11
-61,18,-11
-56,17,-20
-69,19,-29
-62,22,-24
-59,22,-24
-58,23,-21
-55,25,-28
-50,21,-26
-57,21,-27
-52,22,-29
-53,20,-32
-53,19,-30
-49,23,-33
-51,23,-34
-49,23,-32
-52,26,-36
-51,26,-37
-49,24,-36
-48,25,-38
-46,23,-37
-44,25,-39
-45,24,-37
-44,22,-37
-46,26,-40
-44,23,-38
-45,24,-38
-45,26,-41
-46,28,-43
-42,28,-41
-46,26,-42
-47,27,-43
-40,25,-39
-42,27,-42
-42,24,-40
-41,23,-39
-41,25,-40
-44,25,-40
-40,24,-39
-45,26,-41
-41,24,-41
-43,25,-41
-38,20,-42
-52,30,-47
-38,22,-46
-42,22,-47
-41,22,-46
-35,21,-45
-38,20,-46
-41,26,-49
-42,25,-46
-41,22,-44
-40,20,-44
-39,20,-47
-44,19,-38
-40,21,-42
-45,21,-51
-29,18,-42
-40,24,-43
-40,25,-41
-39,24,-43
-42,23,-41
-43,23,-41
-38,23,-43
-40,22,-42
-34,22,-44
-47,21,-39
-39,26,-44
-43,20,-43
-41,20,-45
-43,26,-51
-37,24,-48
-37,25,-47
-41,21,-47
-40,23,-49
-36,21,-46
-37,21,-45
-36,25,-45
-41,23,-44
-29,25,-51
-39,25,-53
-36,31,-46
-33,23,-49
-31,30,-51
-30,25,-51
-27,25,-49
-25,25,-51
-24,28,-53
-30,28,-52
-23,28,-43
-49,17,-56
-28,19,-54
-28,19,-52
-21,29,-48
-31,29,-49
-33,30,-48
-29,30,-46
-57,21,-52
-20,21,-43
-28,28,-42
-40,24,-48
-43,24,-48
-41,29,-50
-44,18,-49
-45,18,-45
-31,24,-40
-43,19,-36
-44,22,-37
-45,20,-36
-46,21,-39
-42,14,-40
-52,33,-50
-57,25,-49
-44,29,-41
-49,26,-39
-46,19,-38
-47,20,-35
-46,22,-32
-49,22,-33
-47,25,-36
-47,23,-33
-45,24,-33
-45,23,-35
-46,22,-36
-48,22,-35
-46,24,-35
-46,24,-36
-48,22,-37
-42,25,-37
-41,23,-36
-50,18,-42
-42,25,-44
-37,20,-43
-43,22,-45
-28,20,-44
-33,19,-50
-33,17,-52
-35,19,-56
-40,20,-56
-31,21,-53
-31,20,-54
-32,19,-56
-32,20,-53
-32,20,-51
-34,19,-52
-31,19,-51
-33,20,-48
-31,19,-47
-35,18,-50
-44,47,-47
-41,13,-54
-35,18,-48
-37,19,-49
-39,19,-52
-36,18,-50
-42,18,-50
-40,18,-48
-35,19,-47
-38,19,-46
-42,19,-43
-46,18,-46
-40,19,-42
-46,18,-44
-43,20,-45
-42,19,-45
-40,20,-43
-45,21,-45
-47,25,-47
-47,22,-47
-48,15,-44
-46,17,-43
-39,22,-43
-33,18,-43
-21,25,-45
-43,24,-53
-52,20,-50
-23,24,-52
-23,21,-55
-31,21,-51
-24,25,-48
-26,27,-51
-29,24,-51
-34,21,-52
-34,20,-56
-33,19,-53
-29,23,-56
-26,20,-53
-26,20,-54
-15,23,-57
-57,19,-64
-27,23,-47
-27,26,-54
-26,23,-48
-20,25,-52
-25,26,-56
-26,27,-55
-23,26,-51
-25,25,-56
-27,27,-53
-23,29,-53
-25,28,-50
-22,29,-52
-33,25,-57
-24,25,-52
-20,28,-53
-25,26,-49
-21,29,-50
-25,27,-52
-28,29,-56
-20,27,-51
-26,30,-53
-22,30,-52
-21,29,-52
-26,23,-51
-18,31,-52
-18,30,-47
-20,31,-50
-22,28,-52
-22,26,-56
-16,29,-52
-21,32,-52
-21,27,-55
-14,24,-50
-24,33,-53
-21,49,-45
-20,-1,-55
-36,24,-56
-20,24,-52
-22,29,-53
-30,29,-52
-22,31,-48
-31,29,-52
-29,28,-51
-29,25,-50
-24,29,-50
-29,27,-50
-30,27,-50
-34,28,-49
-33,28,-46
-35,26,-48
-36,26,-47
-36,27,-46
-36,28,-44
-35,26,-43
-38,25,-46
-40,26,-45
-36,26,-46
-34,22,-48
-39,25,-46
-38,25,-47
-36,26,-49
-38,25,-46
-37,24,-43
-39,22,-47
-40,23,-44
-35,23,-42
-34,23,-45
-33,22,-44
-32,25,-50
-18,22,-52
-39,28,-59
-33,24,-59
-21,26,-55
-29,29,-57
-25,27,-52
-23,27,-50
-26,27,-56
-21,27,-56
-26,27,-53
-23,31,-51
-26,34,-51
-34,33,-41
-79,34,-61
-21,27,-56
-26,27,-53
-23,31,-51
-26,34,-51
-34,33,-41
-79,34,-61
-24,31,-38
-42,31,-39
-22,31,-32
-27,39,-31
-35,41,-31
-36,33,-23
-38,33,-22
-54,30,-39
-56,28,-37
-37,28,-24
-40,26,-27
-67,66,-55
-33,28,-39
-34,33,-36
-35,33,-37
-39,32,-45
-38,32,-46
-39,29,-36
-41,29,-38
-40,32,-41
-41,32,-40
-40,34,-34
-45,34,-36
-47,28,-43
-50,30,-42
-49,32,-33
-51,23,-31
-57,25,-32
-52,35,-26
-52,43,-23
-62,4,-16
-62,4,-16
-62,4,-16
-62,4,-16
-62,4,-16
-62,4,-16
-62,4,-16
-62,4,-16
-62,4,-16
-62,4,-16
-62,4,-16
-62,4,-16
-62,4,-16
-62,4,-16
-62,4,-16
-62,4,-16
-62,4,-16
-62,4,-16
-62,4,-16
-62,4,-16
-62,4,-16
-62,4,-16
-62,4,-16
-62,4,-16
-62,4,-16
-62,4,-16
-62,4,-16
-62,4,-16
-62,4,-16
-62,4,-16
-62,4,-16
-62,4,-16
-62,4,-16
-62,4,-16
-62,4,-16
-62,4,-16
-62,4,-16
-62,4,-16
-62,4,-16
-62,4,-16
-62,4,-16
-62,4,-16
-62,4,-16
-62,4,-16
-62,4,-16
-62,4,-16
-62,4,-16
-62,4,-16
-62,4,-16
-62,4,-16
-62,4,-16
-62,4,-16
-62,4,-16
-62,4,-16
-62,4,-16
-62,4,-16
-62,4,-16
-62,4,-16
-62,4,-16
-62,4,-16
-62,4,-16
-62,4,-16
-62,4,-16
-62,4,-16
-62,4,-16
-62,4,-16
-62,4,-16
-62,4,-16
-62,4,-16
-62,4,-16
-62,4,-16
-62,4,-16
-62,4,-16
-62,4,-16
-62,4,-16
-62,4,-16
-62,4,-16
-62,4,-16
-62,4,-16
-62,4,-16
-62,4,-16
-62,4,-16
-62,4,-16
-62,4,-16
-62,4,-16
-62,4,-16
-62,4,-16
-62,4,-16
-62,4,-16
-62,4,-16
-62,4,-16
-62,4,-16
-62,4,-16
-62,4,-16
-62,4,-16
-62,4,-16
-62,4,-16
-62,4,-16
-62,4,-16
-62,4,-16
-62,4,-16
-62,4,-16
-62,4,-16
-62,4,-16
-62,4,-16
-62,4,-16
-62,4,-16
-62,4,-16
-62,4,-16
-62,4,-16
-62,4,-16
-62,4,-16
-62,4,-16
-62,4,-16
-62,4,-16
-62,4,-16
-62,4,-16
-62,4,-16
-62,4,-16
-62,4,-16
-62,4,-16
-62,4,-16
-62,4,-16
-62,4,-16
-62,4,-16
-62,4,-16
-62,4,-16
-64,5,-20
-66,6,-24
-62,6,-23
-61,5,-26
-59,6,-29
-58,8,-32
-56,6,-31
-59,6,-33
-56,8,-34
-53,8,-33
-49,14,-29
-53,17,-30
-45,21,-28
-47,21,-28
-49,20,-31
-61,20,-41
-57,20,-39
-47,21,-34
-53,20,-35
-51,21,-39
-57,16,-37
-59,15,-35
-57,18,-36
-52,19,-33
-51,18,-31
-52,20,-35
-50,20,-39
-48,18,-40
-44,16,-38
-50,16,-45
-47,12,-47
-53,3,-44
-49,0,-40
-50,-1,-42
-47,-4,-36
-46,-5,-34
-51,-6,-40
-51,-7,-42
-54,-10,-46
-49,-10,-41
-44,-9,-39
-52,-6,-37
-56,-4,-36
-50,1,-34
-52,1,-35
-56,1,-32
-54,3,-29
-54,4,-28
-55,6,-29
-55,7,-29
-53,8,-29
-53,8,-31
-53,8,-34
-57,8,-39
-57,8,-42
-57,2,-48
-55,0,-45
-46,3,-38
-46,5,-40
-47,7,-45
-46,5,-41
-51,4,-46
-47,3,-48
-46,2,-44
-42,3,-37
-48,2,-40
-54,3,-41
-49,8,-44
-46,11,-44
-47,11,-40
-48,10,-38
-51,14,-42
-50,13,-39
-47,11,-33
-51,10,-36
-51,11,-37
-52,14,-39
-52,14,-37
-49,16,-36
-52,18,-37
-52,17,-36
-51,17,-34
-50,18,-34
-49,18,-34
-51,19,-33
-51,20,-34
-51,21,-35
-49,21,-34
-51,21,-33
-51,21,-33
-50,21,-34
-50,22,-33
-50,22,-32
-52,22,-32
-52,23,-33
-48,22,-30
-47,22,-31
-50,23,-33
-51,24,-33
-49,23,-31
-48,24,-33
-48,25,-33
-49,24,-33
-49,24,-33
-49,24,-32
-49,24,-35
-49,24,-36
-47,23,-34
-48,23,-35
-48,24,-36
-46,23,-37
-47,23,-37
-47,22,-37
-47,21,-37
-45,23,-38
-45,23,-39
-47,23,-40
-46,24,-42
-44,23,-40
-45,23,-40
-45,23,-39
-45,23,-40
-44,23,-40
-45,21,-37
-45,20,-36
-46,22,-44
-45,20,-38
-45,18,-34
-49,20,-41
-45,21,-42
-49,20,-38
-48,19,-35
-48,19,-37
-45,18,-38
-45,21,-38
-47,20,-38
-47,21,-40
-42,22,-42
-45,21,-40
-47,20,-42
-45,19,-44
-43,18,-41
-46,17,-40
-48,16,-40
-46,15,-37
-51,16,-41
-54,16,-45
-39,13,-40
-46,13,-44
-52,11,-42
-51,11,-42
-50,11,-41
-50,9,-44
-55,8,-42
-41,4,-33
-47,3,-35
-43,0,-33
-55,3,-43
-51,6,-46
-50,11,-48
-47,11,-47
-50,10,-47
-47,9,-44
-47,10,-42
-48,11,-42
-47,9,-40
-51,11,-43
-53,13,-45
-39,9,-33
-53,12,-38
-53,13,-37
-49,13,-38
-49,13,-38
-49,13,-39
-47,12,-39
-48,13,-40
-50,13,-40
-49,14,-38
-48,14,-38
-48,15,-38
-50,14,-39
-48,13,-39
-49,14,-41
-51,14,-41
-50,13,-38
-51,13,-40
-51,13,-38
-49,14,-37
-49,14,-39
-50,15,-38
-48,16,-40
-48,15,-38
-49,16,-36
-49,20,-38
-49,25,-38
-50,24,-38
-47,20,-34
-45,20,-32
-48,21,-31
-42,25,-35
-39,26,-38
-40,23,-41
-41,23,-42
-41,21,-49
-42,17,-52
-42,16,-51
-45,17,-51
-48,18,-54
-47,19,-56
-45,19,-55
-45,20,-49
-51,18,-43
-48,19,-39
-43,25,-41
-42,27,-41
-42,25,-40
-39,29,-34
-42,28,-33
-40,27,-34
-38,25,-32
-43,20,-34
-45,16,-36
-38,13,-28
-40,16,-26
-49,24,-34
-62,23,-47
-69,18,-49
-56,13,-37
-53,12,-34
-56,14,-37
-53,16,-35
-53,18,-35
-58,16,-35
-59,15,-33
-55,16,-29
-52,19,-29
-49,23,-29
-49,26,-28
-50,27,-28
-51,27,-33
-49,26,-34
-49,26,-41
-52,24,-41
-50,16,-40
-44,18,-39
-47,16,-43
-45,11,-48
-49,7,-48
-45,1,-44
-43,0,-43
-40,0,-38
-36,-3,-38
-36,-4,-40
-35,-7,-38
-28,-12,-33
-39,-16,-36
-45,-16,-40
-34,-17,-31
-30,-18,-28
-34,-19,-31
-36,-21,-30
-29,-21,-26
-38,-23,-32
-57,-32,-39
-54,-35,-36
-53,-42,-31
-50,-42,-28
-42,-39,-28
-49,-42,-33
-49,-55,-28
-43,-67,-36
-50,-69,-43
-76,-65,-49
-54,-56,-39
-35,-48,-34
-38,-44,-34
-30,-27,-41
-28,-39,-50
-19,-36,-40
-28,-40,-41
-33,-45,-43
-27,-49,-37
-23,-47,-39
-29,-47,-44
-27,-46,-38
-24,-45,-37
-25,-44,-41
-25,-44,-41
-24,-42,-38
-24,-42,-40
-22,-43,-42
-20,-42,-41
-21,-42,-43
-21,-41,-45
-22,-41,-45
-22,-42,-42
-22,-43,-41
-22,-43,-42
-22,-42,-42
-21,-42,-42
-19,-42,-41
-21,-42,-42
-19,-42,-43
-19,-42,-43
-21,-43,-43
-20,-44,-43
-20,-43,-43
-20,-43,-43
-19,-42,-44
-19,-42,-43
-20,-43,-43
-19,-44,-42
-18,-44,-43
-18,-43,-42
-18,-43,-44
-19,-43,-45
-21,-43,-44
-20,-43,-42
-19,-42,-42
-18,-42,-42
-20,-42,-43
-21,-43,-42
-21,-44,-42
-25,-45,-44
-24,-44,-43
-24,-44,-44
-26,-43,-47
-29,-44,-47
-30,-47,-51
-34,-45,-55
-36,-46,-54
-36,-44,-48
-37,-43,-46
-41,-44,-43
-42,-45,-44
-43,-48,-45
-43,-48,-42
-46,-48,-39
-47,-43,-33
-43,-40,-30
-44,-32,-24
-43,-29,-23
-41,-22,-21
-47,-19,-21
-46,-19,-22
-46,-19,-23
-46,-20,-23
-44,-21,-21
-48,-21,-23
-48,-18,-24
-48,-14,-25
-49,-11,-24
-49,-8,-20
-50,-7,-20
-54,-6,-21
-54,-6,-20
-57,-7,-18
-57,-7,-19
-55,-7,-19
-59,-11,-18
-59,-14,-18
-61,-19,-20
-63,-21,-24
-60,-20,-23
-57,-18,-17
-56,-17,-14
-57,-16,-16
-58,-16,-17
-61,-22,-19
-57,-29,-20
-58,-29,-20
-55,-23,-16
-54,-18,-17
-57,-9,-19
-58,-6,-21
-59,-3,-21
-64,-9,-22
-63,-14,-20
-63,-19,-15
-65,-20,-15
-58,-16,-13
-57,-11,-13
-58,-5,-9
-54,1,-6
-53,2,-7
-58,-1,-11
-59,-4,-13
-59,-9,-15
-58,-13,-17
-54,-16,-17
-53,-16,-16
-55,-17,-19
-60,-18,-23
-62,-19,-23
-64,-21,-24
-64,-22,-24
-64,-21,-24
-61,-20,-24
-60,-20,-25
-58,-18,-25
-57,-17,-26
-57,-20,-28
-52,-22,-28
-49,-21,-26
-46,-17,-30
-48,-17,-34
-52,-20,-42
-53,-23,-43
-52,-24,-41
-49,-20,-37
-50,-18,-36
-50,-16,-36
-51,-16,-35
-49,-16,-33
-50,-15,-32
-49,-14,-32
-49,-11,-35
-50,-10,-35
-51,-8,-36
-51,-8,-35
-53,-5,-36
-55,-3,-36
-58,-2,-35
-56,0,-33
-56,1,-33
-55,2,-33
-54,2,-33
-54,1,-34
-55,-1,-36
-56,-7,-38
-55,-10,-39
-54,-9,-38
-54,-6,-35
-53,-4,-33
-50,0,-29
-49,2,-27
-50,2,-29
-54,0,-35
-56,-2,-38
-63,-8,-44
-61,-9,-40
-54,-9,-31
-51,-9,-28
-52,-9,-29
-53,-9,-32
-53,-9,-35
-55,-9,-40
-56,-10,-41
-53,-11,-37
-50,-6,-32
-52,-4,-32
-55,0,-30
-57,-1,-30
-58,-3,-27
-60,-5,-26
-63,-6,-27
-62,-8,-27
-61,-7,-26
-62,-7,-29
-61,-8,-29
-56,-11,-26
-54,-10,-24
-56,-11,-26
-61,-14,-37
-64,-18,-42
-59,-24,-34
-56,-25,-29
-57,-27,-26
-52,-22,-20
-51,-21,-19
-52,-18,-20
-52,-18,-20
-50,-17,-17
-52,-18,-16
-53,-18,-15
-55,-18,-15
-55,-18,-15
-56,-17,-16
-57,-17,-18
-59,-22,-16
-57,-24,-13
-59,-25,-11
-60,-22,-14
-62,-23,-14
-62,-24,-13
-62,-26,-13
-53,-30,-9
-52,-32,-9
-53,-36,-14
-47,-34,-13
-43,-33,-9
-48,-32,-10
-48,-32,-9
-49,-30,-8
-50,-28,-9
-55,-26,-11
-62,-29,-11
-61,-32,-9
-61,-33,-8
-61,-34,-11
-59,-33,-17
-56,-35,-16
-54,-36,-15
-53,-37,-18
-54,-39,-20
-48,-40,-20
-44,-39,-19
-45,-37,-22
-49,-39,-24
-45,-38,-19
-43,-29,-11
-47,-28,-11
-47,-26,-15
-45,-24,-15
-47,-19,-15
-54,-15,-18
-56,-14,-19
-54,-18,-18
-50,-19,-17
-56,-18,-23
-62,-22,-26
-56,-25,-25
-56,-15,-21
-62,-19,-22
-61,-33,-19
-56,-37,-18
-49,-34,-22
-56,-29,-29
-57,-23,-29
-47,-20,-21
-42,-17,-16
-59,-16,-35
-73,-19,-48
-64,-20,-33
-52,-23,-27
-58,-25,-34
-57,-24,-39
-57,-27,-37
-51,-23,-37
-49,-20,-38
-49,-14,-37
-42,-9,-34
-43,-14,-32
-61,-16,-33
-54,-13,-34
-47,-12,-34
-52,-10,-36
-49,-9,-33
-60,-11,-37
-60,-9,-38
-53,-8,-41
-45,-5,-41
-49,-5,-40
-47,-8,-40
-44,-7,-40
-46,-7,-39
-55,-8,-40
-48,-9,-36
-51,-8,-36
-49,-10,-30
-48,-11,-28
-54,-13,-29
-56,-14,-27
-59,-14,-27
-60,-13,-26
-58,-13,-26
-56,-14,-28
-59,-14,-30
-57,-17,-33
-54,-21,-32
-49,-23,-28
-40,-21,-22
-37,-21,-19
-31,-20,-13
-32,-24,-7
-34,-28,-4
-37,-52,0
-34,-51,0
-33,-59,2
-36,-62,3
-35,-61,3
-36,-62,5
-35,-65,6
-31,-68,6
-26,-65,4
-27,-66,7
-25,-68,10
-19,-67,15
-23,-68,15
-20,-67,15
-15,-66,19
-17,-66,20
-24,-69,11
-27,-75,6
18,-78,40
-21,-69,29
-39,-61,7
-42,-67,22
-23,-66,22
-33,-56,10
-34,-48,-23
75,-54,48
-102,-36,-1
-53,-54,24
7,-28,-2
-46,-27,-46
21,-52,-26
33,-121,4
62,-81,15
14,-107,-36
-39,-91,-43
-28,-78,-32
-21,-77,-15
4,-73,-31
-15,-73,-21
-29,-68,-29
-38,-61,-16
-39,-65,-13
-38,-63,5
-19,-67,9
-5,-58,-12
-41,-51,-20
-34,-47,-17
-23,-42,0
-23,-43,-1
-18,-55,0
-25,-64,-5
-5,-49,0
-8,-72,1
-35,-77,10
-25,-81,6
-128,-123,21
65,-51,20
-15,3,-10
-14,-43,14
-14,-66,33
-16,-62,33
-7,-57,31
-4,-59,31
-33,-52,10
-24,-69,18
-28,-77,10
-63,-67,-29
-44,-65,-26
-30,-68,-29
-55,-56,-43
-27,-52,-27
-29,-54,-27
-39,-55,-30
-28,-61,-10
-19,-61,-2
-25,-59,0
-29,-58,6
-26,-57,11
-27,-55,2
-27,-57,2
-24,-61,4
-22,-59,4
-15,-54,4
-15,-52,7
-25,-49,12
-29,-50,11
-29,-51,12
-30,-69,14
-31,-82,20
-29,-79,20
-26,-64,0
-15,-66,0
-12,-68,14
-19,-63,16
-30,-62,5
-35,-61,3
-35,-58,9
-28,-62,14
-27,-65,16
-30,-58,18
-29,-53,18
-22,-60,14
-21,-65,14
-23,-62,24
-18,-56,29
-18,-50,31
-19,-42,31
-22,-40,31
-27,-49,30
-24,-48,34
-13,-41,30
-20,-40,24
-21,-42,24
-18,-43,25
-13,-43,27
-20,-44,27
-23,-47,27
-21,-44,27
-20,-44,27
-24,-41,28
-37,-52,33
-41,-61,37
-31,-61,29
-38,-54,25
-30,-52,27
-26,-46,23
-26,-47,20
-35,-50,19
-37,-56,21
-39,-67,21
-38,-67,21
-37,-64,21
-33,-56,22
-33,-54,22
-33,-56,21
-34,-57,21
-34,-56,20
-31,-49,20
-32,-44,19
-29,-38,20
-28,-35,20
-31,-35,19
-35,-39,20
-38,-44,23
-39,-44,21
-39,-46,21
-40,-55,21
-33,-60,22
-31,-62,20
-27,-62,21
-22,-61,19
-19,-60,15
-16,-58,13
-15,-57,12
-14,-57,10
-20,-54,6
-24,-52,10
-25,-52,10
-30,-55,13
-32,-59,14
-28,-57,16
-24,-55,18
-26,-53,13
-24,-56,13
-26,-60,11
-27,-61,8
-27,-61,7
-19,-65,7
-15,-67,7
-17,-63,5
-23,-59,7
-26,-58,9
-20,-60,13
-19,-57,14
-14,-60,11
-11,-66,9
-16,-69,11
-28,-60,6
-29,-57,8
-27,-47,8
-28,-43,10
-33,-50,11
-34,-59,12
-43,-81,11
-44,-63,4
-50,-62,6
-51,-69,7
-61,-73,0
-71,-67,-3
-74,-50,-2
-76,-40,-1
-77,-32,3
-73,-29,5
-72,-12,1
-78,-7,-2
-64,-4,0
-40,7,4
-38,15,4
-40,23,3
-35,23,7
-20,23,18
-10,29,22
-11,32,23
-13,39,24
-11,46,25
-10,48,26
-11,46,23
-17,48,26
-25,51,27
-36,55,25
-42,58,25
-36,57,22
-10,60,29
-15,57,30
-34,53,20
-28,53,22
-27,49,30
-34,53,19
-28,53,20
-15,53,17
-7,53,18
-8,57,1
-6,54,0
4,47,23
-14,44,25
-14,40,26
-32,31,15
-41,29,14
-35,29,19
-58,27,11
-60,32,14
-71,29,14
-84,25,11
-81,22,15
-66,21,20
-69,20,17
-75,18,18
-74,15,17
-72,16,12
-72,13,10
-65,12,7
-65,11,5
-59,10,-1
-68,5,-12
-67,1,-14
-54,0,-2
-57,5,-6
-58,7,-19
-58,7,-22
-65,6,-28
-62,7,-26
-59,7,-23
-61,7,-23
-60,7,-23
-69,9,-31
-54,9,-26
-55,10,-21
-60,11,-26
-60,10,-26
-60,10,-26
-61,8,-28
-63,6,-30
-61,5,-30
-60,5,-29
-67,2,-32
-68,-3,-34
-71,-10,-32
-71,-10,-31
-67,-11,-29
-55,-17,-20
-53,-18,-16
-46,-20,-16
-47,-23,-21
-52,-27,-27
-58,-29,-28
-56,-30,-24
-49,-31,-13
-50,-31,-11
-56,-30,-16
-56,-30,-17
-53,-30,-15
-52,-28,-15
-51,-25,-15
-53,-25,-15
-54,-25,-15
-56,-25,-15
-57,-26,-15
-55,-27,-12
-55,-27,-13
-55,-26,-12
-56,-25,-11
-53,-24,-11
-53,-22,-15
-56,-20,-17
-54,-16,-18
-47,-19,-4
-68,-15,-13
-63,-14,-16
-62,-14,-15
-58,-15,-13
-60,-12,-13
-62,-7,-17
-62,-8,-16
-59,-13,-8
-59,-5,-23
-65,-6,-27
-73,-16,-25
-68,-15,-20
-55,-11,-34
-59,-13,-36
-57,-13,-29
-57,-11,-29
-50,-12,-30
-56,-11,-35
-59,-10,-32
-47,-7,-30
-50,-7,-31
-65,-4,-40
-56,-1,-32
-57,-1,-28
-52,3,-38
-52,4,-39
-46,7,-35
-56,12,-43
-62,14,-42
-59,13,-42
-54,12,-42
-40,11,-35
-46,11,-37
-51,11,-41
-56,11,-40
-52,8,-26
-55,5,-27
-54,5,-32
-58,9,-31
-48,9,-35
-56,16,-51
-29,25,-59
-20,29,-58
-35,27,-52
-42,24,-47
-49,20,-35
-53,19,-34
-53,19,-33
-37,10,-27
-72,4,-21
-68,9,-22
-66,7,-34
-53,12,-42
-54,5,-44
-55,2,-44
-43,3,-37
-41,3,-37
-46,-2,-29
-49,-5,-24
-47,4,-24
-60,12,-31
-66,5,-33
-50,-2,-28
-45,3,-25
-51,9,-30
-62,2,-32
-64,-3,-29
-68,-6,-31
-69,-7,-32
-61,-8,-26
-57,-9,-25
-56,-8,-29
-56,-7,-30
-55,-8,-29
-60,-11,-33
-59,-12,-32
-56,-15,-28
-56,-14,-28
-53,-12,-29
-51,-9,-28
-50,-10,-29
-55,-12,-32
-56,-12,-33
-54,-12,-32
-55,-12,-33
-53,-12,-33
-55,-12,-33
-55,-12,-34
-55,-12,-34
-53,-12,-34
-52,-11,-32
-54,-12,-34
-55,-11,-34
-55,-11,-33
-56,-12,-32
-58,-13,-33
-57,-14,-32
-55,-13,-29
-56,-11,-32
-55,-11,-32
-53,-12,-30
-56,-12,-31
-57,-14,-31
-57,-15,-30
-58,-16,-28
-55,-17,-25
-53,-16,-23
-56,-16,-24
-57,-15,-25
-57,-16,-24
-59,-18,-23
-58,-20,-22
-57,-18,-19
-58,-17,-19
-56,-17,-19
-54,-17,-18
-55,-18,-16
-57,-20,-16
-59,-24,-18
-57,-28,-17
-57,-30,-18
-55,-30,-17
-55,-31,-15
-56,-31,-15
-56,-31,-15
-55,-30,-14
-54,-28,-12
-55,-26,-12
-51,-18,-12
-54,-14,-13
-53,-13,-13
-59,-14,-15
-58,-14,-13
-60,-15,-12
-58,-13,-13
-60,-8,-19
-60,-8,-19
-60,-8,-18
-66,-8,-24
-68,-10,-24
-64,-12,-22
-66,-13,-22
-65,-14,-22
-66,-15,-23
-69,-15,-23
-71,-14,-21
-71,-11,-18
-76,-7,-19
-78,-6,-15
-70,-4,-1
-72,-2,1
-69,0,4
-58,0,15
-61,1,15
-60,3,16
-54,6,19
-56,8,22
-44,10,12
-51,17,12
-46,17,22
-38,18,27
-55,23,16
-49,25,12
-44,24,25
-57,19,13
-68,17,18
-52,17,25
-49,21,18
-53,18,16
-49,18,31
-63,9,41
-60,6,62
-58,12,57
-73,23,37
-69,25,36
-43,23,29
-34,15,54
-30,19,67
-19,7,57
-19,9,62
-24,5,53
-33,6,50
-32,13,51
-36,16,42
-57,19,32
-55,23,31
-60,22,27
-81,29,25
-93,34,24
-80,43,22
-66,48,18
-47,47,11
-33,38,13
-24,36,11
-20,34,12
-25,34,15
-24,36,20
-30,39,18
-33,42,17
-40,48,13
-40,49,13
-37,49,17
-35,47,20
-32,45,21
-29,48,15
-30,48,15
-39,48,16
-37,48,15
-32,49,18
-36,48,18
-38,47,17
-35,46,16
-35,45,14
-21,47,11
-20,47,6
-38,40,7
-46,37,15
-16,46,-4
-69,36,5
-56,39,-2
-68,29,3
-69,29,3
-71,32,-14
-85,25,-9
-62,27,0
-55,29,-15
-60,25,-11
-68,21,-13
-58,22,-8
-52,21,-10
-54,25,-25
-53,24,-24
-62,20,-31
-64,19,-31
-45,18,-21
-53,18,-26
-55,18,-31
-53,17,-32
-48,19,-40
-52,17,-42
-45,17,-39
-51,12,-39
-50,17,-44
-42,21,-46
-50,18,-42
-57,17,-41
-66,12,-29
-64,13,-24
-50,16,-30
-55,16,-38
-67,20,-36
-70,34,-45
-64,34,-47
-60,35,-40
-59,34,-39
-52,29,-29
-47,26,-23
-37,23,-15
-38,25,-15
-36,27,-12
-37,32,-11
-41,34,-12
-38,40,-12
-43,40,-15
-47,40,-16
-48,43,-17
-48,42,-17
-48,42,-14
-46,43,-13
-45,42,-14
-46,40,-15
-46,40,-16
-45,38,-11
-47,36,-11
-43,35,-16
-40,38,-14
-46,35,-15
-54,32,-12
-46,37,-12
-44,37,-11
-48,33,-18
-56,32,-20
-48,30,-17
-59,30,-25
-59,25,-22
-57,25,-24
-51,31,-31
-56,28,-25
-47,25,-16
-65,20,-27
-73,18,-24
-60,15,-25
-63,14,-30
-53,11,-17
-49,10,-12
-62,9,-11
-71,8,-9
-52,7,-8
-68,10,-26
-67,9,-23
-59,9,-23
-70,8,-21
-65,2,0
-64,4,-22
-80,1,-18
-33,8,12
-35,8,12
-66,5,-15
-71,2,-13
-71,0,-15
-68,-1,-22
-63,-1,-19
-59,-1,-12
-67,-5,-7
-51,0,13
-56,1,5
-66,-3,9
-71,-3,-2
-73,-3,-8
-70,2,-11
-64,3,-8
-59,-4,2
-53,-2,2
-66,-1,-5
-68,-6,0
-54,-11,15
-69,-6,-7
-69,-5,-12
-71,-6,0
-72,-6,-13
-60,-10,-3
-62,-15,0
-59,-14,4
-65,-10,-1
-61,-4,-3
-52,1,-11
-56,2,-15
-56,1,-15
-52,1,-7
-50,2,-7
-48,6,-10
-50,5,-11
-47,3,-8
-51,2,-19
-66,-4,-20
-50,-11,-5
-53,-14,-16
-72,-32,-16
-63,-39,-3
-79,-47,-20
-62,-60,4
-61,-68,6
-67,-73,1
-67,-77,10
-59,-70,16
-42,-61,16
-43,-53,21
-41,-42,20
-44,-34,16
-64,-31,13
-61,-29,16
-57,-24,12
-55,-23,8
-66,-20,4
-59,-19,9
-56,-19,6
-53,-16,0
-55,-16,1
-55,-13,-1
-58,-10,-4
-55,-11,-6
-59,-11,-10
-59,-12,-9
-56,-22,-12
-62,-26,-15
-54,-28,-10
-55,-30,-10
-60,-30,-12
-64,-30,-12
-64,-30,-11
-61,-29,-11
-58,-29,-11
-59,-28,-12
-57,-26,-13
-56,-26,-14
-54,-26,-15
-54,-27,-16
-54,-29,-18
-55,-29,-19
-51,-29,-17
-50,-27,-18
-50,-26,-18
-51,-25,-17
-53,-25,-17
-58,-28,-19
-60,-30,-17
-57,-30,-15
-58,-28,-18
-55,-27,-17
-53,-26,-16
-54,-27,-16
-54,-29,-16
-56,-30,-16
-55,-29,-16
-56,-27,-17
-54,-26,-17
-56,-25,-18
-57,-26,-18
-57,-26,-19
-56,-25,-19
-56,-25,-19
-58,-26,-20
-59,-27,-21
-60,-30,-21
-60,-33,-20
-58,-35,-18
-55,-34,-17
-54,-33,-17
-53,-33,-16
-53,-33,-16
-53,-34,-16
-54,-34,-15
-58,-34,-16
-58,-33,-16
-56,-33,-15
-58,-31,-14
-58,-30,-12
-57,-28,-12
-55,-27,-10
-53,-27,-9
-51,-27,-8
-52,-27,-8
-52,-25,-6
-51,-25,-4
-54,-26,-3
-57,-27,-2
-58,-27,-1
-59,-26,0
-57,-26,1
-60,-25,1
-58,-24,2
-58,-24,3
-56,-23,2
-56,-23,2
-57,-24,1
-55,-25,1
-56,-25,-1
-55,-25,-2
-56,-26,-1
-58,-27,-3
-58,-27,-3
-55,-27,-1
-59,-26,-2
-60,-26,-3
-59,-26,-1
-59,-24,0
-58,-22,-1
-56,-22,0
-57,-20,-2
-58,-20,-3
-60,-21,-4
-63,-22,-5
-62,-23,-4
-63,-22,-4
-62,-22,-4
-63,-23,-6
-62,-24,-5
-61,-26,-4
-59,-26,-4
-58,-26,-5
-56,-26,-4
-55,-26,-4
-50,-25,-4
-49,-24,-5
-53,-24,-5
-61,-28,-8
-67,-30,-8
-66,-32,-5
-64,-31,-4
-61,-28,-3
-57,-24,-4
-55,-19,-5
-55,-18,-5
-58,-19,-4
-61,-22,-5
-62,-23,-6
-59,-23,-6
-59,-23,-7
-58,-22,-6
-59,-23,-6
-59,-23,-6
-57,-23,-6
-56,-22,-6
-58,-23,-7
-59,-24,-7
-65,-28,-7
-71,-35,-7
-68,-38,-4
-57,-37,-2
-53,-34,-2
-47,-28,-2
-49,-21,-1
-52,-19,-1
-57,-19,0
-61,-20,-1
-64,-21,-1
-64,-21,-2
-62,-21,-1
-61,-22,-3
-59,-23,-2
-57,-24,-2
-58,-25,-3
-58,-28,-3
-59,-29,-3
-59,-29,-2
-61,-29,-2
-60,-29,-1
-59,-28,-1
-57,-27,0
-57,-24,0
-57,-24,-1
-57,-23,-1
-56,-22,0
-58,-22,-1
-58,-22,-1
-57,-22,-1
-58,-22,-2
-59,-23,-3
-57,-24,-3
-58,-26,-3
-59,-27,-3
-66,-33,-3
-66,-35,-3
-61,-39,0
-57,-36,-1
-51,-33,0
-46,-24,1
-49,-21,0
-52,-18,0
-54,-17,-1
-60,-19,-2
-64,-23,-3
-64,-25,-3
-63,-27,-3
-61,-27,-2
-57,-27,-1
-56,-27,-2
-59,-27,-2
-53,-28,0
-52,-27,1
-57,-26,-3
-58,-25,-3
-60,-25,-2
-60,-25,-2
-59,-22,-3
-58,-20,-3
-58,-20,-3
-59,-20,-5
-59,-20,-6
-60,-21,-7
-59,-21,-7
-61,-23,-9
-61,-22,-7
-62,-23,-8
-62,-24,-8
-60,-23,-8
-59,-23,-7
-59,-22,-7
-59,-22,-8
-61,-22,-9
-61,-22,-9
-59,-23,-9
-58,-23,-9
-59,-22,-10
-60,-21,-10
-61,-21,-10
-61,-21,-10
-61,-22,-10
-60,-22,-9
-60,-23,-8
-58,-22,-9
-57,-20,-9
-58,-19,-10
-61,-22,-11
-61,-24,-10
-60,-24,-11
-59,-24,-10
-57,-21,-9
-56,-17,-8
-56,-15,-8
-59,-14,-8
-62,-15,-9
-70,-19,-12
-68,-22,-11
-64,-25,-9
-58,-24,-11
-57,-23,-11
-55,-22,-6
-57,-23,-6
-60,-26,-8
-59,-28,-7
-59,-29,-6
-57,-29,-6
-55,-28,-5
-54,-27,-4
-55,-26,-4
-58,-25,-5
-58,-28,-4
-58,-28,-4
-59,-26,-5
-58,-25,-4
-58,-23,-4
-57,-22,-3
-58,-21,-3
-60,-22,-3
-60,-23,-3
-60,-24,-4
-59,-24,-3
-59,-24,-3
-59,-24,-3
-59,-24,-3
-58,-24,-2
-57,-24,-2
-58,-25,-3
-58,-25,-3
-58,-25,-3
-59,-26,-3
-58,-28,-2
-57,-26,-2
-55,-25,-2
-55,-24,-2
-56,-24,-2
-57,-25,-3
-61,-26,-5
-61,-27,-5
-60,-26,-5
-61,-27,-6
-59,-28,-5
-60,-29,-5
-59,-31,-5
-57,-32,-5
-56,-31,-4
-55,-30,-4
-56,-29,-4
-56,-29,-5
-56,-29,-6
-55,-29,-5
-56,-29,-5
-57,-30,-5
-60,-33,-5
-60,-35,-5
-56,-35,-3
-53,-33,-3
-51,-29,-2
-52,-26,-1
-53,-24,-1
-58,-25,-4
-56,-26,-3
-56,-29,-4
-55,-25,-4
-57,-24,-5
-60,-25,-6
-60,-26,-6
-60,-26,-7
-59,-25,-7
-61,-22,-9
-62,-17,-9
-59,-15,-8
-61,-13,-10
-62,-11,-12
-67,-10,-13
-68,-10,-13
-70,-12,-13
-67,-13,-12
-67,-13,-13
-68,-15,-13
-66,-15,-10
-71,-18,-6
-68,-19,-3
-58,-17,2
-62,-15,1
-64,-12,0
-59,-7,3
-63,-1,11
-53,6,25
-68,7,19
-49,10,24
-46,15,12
-59,16,-4
-65,4,-2
-82,1,-9
-61,-4,-8
-64,-3,-6
-76,-5,-9
-59,-2,4
-69,-7,9
-73,1,6
-57,4,7
-53,13,-1
-81,14,-15
-77,18,-14
-64,10,-6
-61,6,3
-58,4,4
-64,3,4
-65,-5,14
-53,5,8
-73,3,7
-59,-1,16
-47,-4,23
-61,-5,22
-61,-2,21
-57,10,6
-80,11,-9
-83,3,-7
-69,-8,17
-52,-10,19
-70,-12,8
-67,-11,10
-53,-2,7
-48,3,6
-49,2,7
-49,10,8
-55,14,6
-72,8,-1
-67,2,3
-54,4,3
-62,10,-2
-68,10,0
-65,4,7
-66,3,5
-68,1,2
-64,2,5
-68,2,4
-70,0,1
-68,0,2
-65,-1,2
-63,1,2
-65,1,1
-64,1,-1
-66,2,-1
-64,0,0
-64,-1,-1
-64,-3,-1
-64,-3,-2
-64,-3,-2
-64,-4,-1
-65,-4,-2
-65,-6,-1
-65,-7,-1
-68,-8,-1
-66,-9,-2
-64,-9,0
-64,-8,0
-63,-9,0
-59,-7,0
-57,-5,1
-62,-4,0
-63,-4,-1
-62,-2,0
-66,-1,0
-68,-1,0
-66,1,3
-67,1,2
-69,-1,-1
-79,-9,-6
-78,-14,-8
-59,-12,-8
-55,-11,-10
-39,-21,6
-27,-7,8
-48,20,-7
-77,10,-10
-71,1,-4
-61,5,-12
-58,10,-15
-69,12,-11
-67,9,-7
-66,3,-8
-65,2,-8
-66,0,-9
-65,-1,-9
-65,-1,-10
-65,-2,-11
-65,-1,-11
-61,0,-10
-62,2,-12
-63,3,-13
-65,2,-13
-64,0,-13
-65,-1,-13
-64,-2,-12
-61,-1,-11
-61,-1,-10
-62,-1,-11
-66,0,-10
-64,1,-9
-67,1,-9
-65,2,-10
-64,2,-9
-64,2,-9
-63,1,-9
-63,1,-9
-64,1,-9
-61,1,-8
-63,-1,-10
-61,-1,-9
-58,-1,-9
-59,-1,-10
-60,0,-10
-64,-1,-10
-67,-5,-8
-69,-11,-4
-68,-12,-3
-63,-13,-3
-60,-13,-2
-54,-8,-2
-55,-7,-1
-61,-10,-2
-64,-11,-2
-67,-11,-3
-65,-13,-4
-65,-14,-3
-61,-13,-2
-60,-13,-1
-61,-9,0
-63,-9,2
-64,-10,1
-64,-13,1
-64,-15,1
-63,-15,1
-62,-14,0
-57,-12,0
-63,-9,-2
-65,-9,-4
-68,-13,-2
-67,-14,1
-64,-13,1
-58,-8,-1
-56,-6,-2
-59,-5,-1
-65,-7,-2
-73,-18,-5
-71,-20,-4
-60,-19,-1
-55,-14,1
-58,-13,1
-63,-16,2
-61,-17,3
-59,-17,1
-59,-16,-1
-57,-14,1
-59,-12,-2
-62,-12,-2
-71,-16,-6
-71,-18,-6
-62,-18,0
-64,-17,-3
-64,-17,-5
-61,-17,-2
-62,-17,-3
-61,-21,-3
-60,-21,-1
-61,-22,-3
-58,-21,-1
-59,-20,2
-61,-17,1
-60,-17,2
-60,-18,1
-61,-19,1
-60,-18,1
-59,-17,1
-59,-17,2
-60,-16,2
-61,-16,2
-62,-17,3
-65,-18,3
-63,-19,4
-58,-17,5
-58,-15,4
-60,-13,2
-61,-13,2
-59,-11,3
-62,-11,2
-63,-13,1
-65,-15,0
-65,-16,0
-64,-18,-1
-64,-19,0
-61,-18,-1
-59,-17,0
-61,-15,0
-61,-17,-1
-61,-18,-1
-59,-17,-2
-61,-16,-3
-62,-16,-3
-63,-18,-4
-60,-18,-3
-61,-18,-5
-62,-18,-4
-61,-19,-3
-62,-20,-3
-61,-17,-4
-59,-18,-2
-58,-18,-2
-62,-17,-4
-62,-16,-4
-62,-16,-3
-62,-16,-4
-62,-16,-7
-63,-16,-6
-64,-17,-6
-65,-18,-6
-63,-19,-5
-61,-19,-5
-61,-18,-4
-60,-17,-4
-59,-17,-6
-59,-17,-5
-59,-16,-6
-58,-16,-7
-58,-15,-9
-59,-15,-11
-60,-16,-11
-57,-17,-10
-55,-17,-10
-60,-16,-17
-62,-16,-19
-60,-16,-15
-59,-17,-13
-60,-17,-17
-67,-15,-21
-66,-15,-19
-65,-16,-17
-65,-16,-17
-72,-15,-23
-59,-16,-16
-62,-18,-14
-59,-17,-12
-61,-16,-15
-58,-14,-12
-60,-13,-13
-65,-12,-14
-61,-11,-13
-64,-8,-16
-61,-5,-14
-59,-4,-13
-57,-2,-13
-59,0,-15
-60,0,-16
-61,1,-16
-58,1,-16
-59,3,-16
-61,3,-16
-61,3,-15
-60,4,-14
-60,7,-16
-62,9,-16
-63,10,-17
-61,10,-20
-60,11,-19
-59,12,-19
-58,13,-20
-57,14,-19
-59,15,-20
-59,15,-20
-58,14,-20
-57,15,-19
-54,15,-18
-57,17,-22
-55,18,-26
-56,18,-25
-54,19,-24
-52,20,-29
-51,20,-32
-59,18,-34
-50,20,-38
-42,19,-37
-52,15,-40
-50,14,-43
-46,15,-41
-46,16,-40
-48,16,-40
-43,15,-40
-40,18,-40
-39,19,-47
-39,19,-49
-42,19,-49
-39,20,-50
-41,22,-50
-43,22,-47
-42,22,-46
-43,22,-46
-42,21,-43
-45,20,-39
-47,21,-42
-47,22,-42
-46,22,-40
-49,20,-40
-49,19,-43
-45,18,-42
-43,19,-43
-41,19,-45
-38,18,-44
-40,17,-44
-42,19,-48
-38,20,-44
-40,20,-43
-44,22,-42
-45,24,-37
-44,24,-36
-46,25,-39
-45,25,-40
-46,24,-44
-48,24,-46
-48,23,-48
-49,20,-51
-46,17,-50
-47,16,-48
-48,15,-49
-47,13,-50
-48,10,-49
-48,5,-45
-43,3,-42
-43,3,-40
-41,2,-35
-41,2,-35
-46,3,-38
-49,4,-39
-48,5,-38
-47,7,-34
-46,9,-32
-46,14,-29
-48,15,-29
-47,17,-29
-55,16,-33
-56,15,-32
-62,14,-36
-54,14,-32
-52,15,-35
-59,16,-37
-52,18,-36
-53,18,-40
-60,17,-39
-43,15,-30
-45,17,-35
-46,16,-37
-42,13,-29
-52,19,-35
-52,15,-29
-56,16,-31
-60,17,-37
-62,15,-36
-66,11,-30
-59,10,-25
-65,7,-20
-64,4,-11
-61,-4,4
-61,-4,-1
-58,-10,2
-48,-16,18
-56,-18,17
-56,-17,19
-42,-20,24
-43,-24,22
-43,-32,26
-40,-34,28
-43,-37,26
-42,-39,27
-34,-41,29
-37,-51,30
-37,-52,31
-28,-47,34
-29,-47,35
-32,-50,35
-30,-57,39
-32,-62,41
-59,-82,55
-59,-97,66
-49,-93,47
-75,-81,54
-34,-57,57
-37,-17,34
-36,-8,27
-25,-5,34
-26,-4,37
9,-6,44
13,-6,44
-14,-14,44
-15,-10,78
-16,-5,70
-28,-10,84
-37,-1,73
-23,2,58
-10,4,52
5,-5,55
-8,6,75
1,3,78
-21,20,42
-8,17,54
-19,18,45
16,16,60
-10,25,57
-5,14,73
1,14,82
-11,20,61
-47,29,20
-75,39,18
-15,35,34
-26,40,25
9,37,34
14,32,45
4,36,81
1,34,74
-5,24,31
-118,48,17
-51,43,44
18,40,47
20,39,50
-13,31,66
-10,31,49
-47,34,26
-28,28,36
-47,28,34
-30,35,47
-27,42,38
-61,59,1
-66,68,-12
-20,59,6
-12,42,43
-19,35,58
-31,30,58
-11,25,67
-14,27,54
-38,33,33
-39,31,30
-41,41,19
-45,45,7
-47,44,5
-58,45,5
-68,49,5
-31,46,16
-16,44,20
-22,43,40
-48,33,35
-50,30,18
-44,37,1
-37,36,-12
-63,35,-60
-75,42,-53
-46,27,-43
-56,37,-51
-53,26,-41
-43,30,-37
-41,31,-41
-41,30,-38
-36,30,-32
-30,32,-34
-40,33,-44
-33,30,-39
-45,32,-48
-38,33,-48
-37,31,-43
-42,31,-44
-36,32,-45
-34,32,-44
-60,29,-52
-57,29,-54
-51,28,-53
-72,28,-50
-54,31,-42
-38,33,-14
-41,32,-9
-28,31,1
-29,29,15
-24,31,23
-26,32,37
-36,32,37
-55,31,40
-51,35,40
-45,36,26
-37,29,40
-28,23,42
-57,23,41
-68,22,36
-46,38,16
-30,35,40
-79,37,38
-52,33,43
-42,30,43
-58,37,27
-56,36,33
-35,38,38
-35,41,29
-31,41,32
-16,44,34
-26,43,26
-32,43,30
-29,43,31
-24,47,27
-17,48,33
-22,51,30
-20,52,30
-19,53,31
-7,48,32
-7,53,31
-11,56,38
-18,60,30
-13,60,33
-6,57,36
-4,55,31
-1,57,31
1,57,35
1,58,34
-2,60,28
3,59,30
8,56,30
8,54,28
9,55,28
10,55,27
16,54,29
13,54,25
13,54,24
18,53,30
21,50,29
21,48,24
22,48,28
25,49,31
24,50,30
25,50,29
29,49,31
29,49,31
25,49,28
27,48,29
25,49,27
26,50,27
27,50,27
26,50,26
26,50,25
27,52,27
28,52,26
27,51,22
27,52,24
28,53,25
27,53,24
29,51,24
27,49,24
25,49,27
23,51,27
27,53,25
29,54,25
28,55,25
26,55,27
28,54,26
28,53,26
28,52,28
26,53,27
26,54,26
28,53,24
29,53,24
28,55,26
26,53,24
26,52,22
29,53,25
28,53,25
27,54,23
26,55,25
27,54,26
28,53,22
27,53,21
28,52,22
28,52,23
29,52,21
29,53,21
29,53,22
30,51,21
28,51,20
30,51,20
29,51,21
29,52,20
30,52,19
31,52,21
31,53,20
30,53,18
31,52,19
31,52,19
32,52,17
31,52,17
31,52,18
31,52,19
31,53,18
31,53,17
32,53,18
32,53,18
32,53,16
31,53,17
31,53,18
32,52,18
30,53,17
31,53,17
31,53,18
32,53,17
32,53,17
31,53,17
31,53,17
32,53,17
31,53,16
32,52,17
31,53,18
32,53,17
31,54,17
32,53,17
31,54,18
32,53,18
32,53,18
32,53,18
31,53,17
32,53,18
32,53,17
32,53,16
32,53,17
32,52,17
33,52,17
32,53,16
33,53,16
33,53,16
33,53,16
33,52,15
33,52,15
33,52,16
34,52,16
33,52,13
33,51,14
34,52,16
32,52,15
34,52,15
33,52,15
33,52,16
34,52,15
33,52,15
34,52,16
33,52,15
33,52,16
34,52,15
34,52,16
33,52,16
34,52,15
34,52,15
34,52,15
33,52,15
33,52,15
34,52,15
34,52,16
33,52,15
34,52,15
33,52,15
33,52,15
34,52,15
34,52,15
33,52,15
33,52,14
33,52,14
33,52,15
34,52,15
33,52,14
33,52,15
33,52,15
33,52,14
32,53,14
33,52,15
32,52,15
33,52,15
33,52,15
33,53,16
33,53,15
34,53,15
34,52,15
32,53,15
32,53,16
33,53,16
33,52,15
32,53,15
33,52,16
33,53,14
33,52,14
33,53,16
33,53,16
33,53,15
32,53,15
32,53,16
32,52,15
32,53,15
33,53,16
32,53,15
33,53,15
33,53,15
32,53,16
32,53,16
32,53,15
32,53,16
33,53,15
31,54,15
31,53,16
32,53,16
32,54,15
32,53,16
31,53,16
31,53,16
32,53,15
32,54,16
32,54,15
32,54,16
32,53,16
30,54,16
30,53,17
30,54,17
30,54,17
31,54,16
30,54,17
31,53,17
32,53,17
31,53,17
31,54,16
31,53,17
31,54,17
30,54,16
31,54,16
32,54,17
31,54,16
31,54,16
31,54,17
30,54,16
31,54,15
31,53,15
31,53,16
30,54,15
30,54,15
31,54,16
31,55,16
30,54,16
31,54,16
30,54,16
31,54,15
30,54,15
30,54,15
31,54,15
30,54,15
31,54,16
32,54,16
31,55,15
31,55,15
31,54,15
30,54,14
30,54,14
30,53,16
30,54,15
31,54,15
30,54,15
31,54,15
31,55,14
31,54,15
31,54,15
31,54,15
31,54,16
30,54,15
30,54,15
30,54,15
31,54,15
31,54,14
30,54,14
30,54,16
31,54,15
31,54,14
31,54,16
30,54,15
30,54,15
30,54,15
30,54,15
30,54,15
30,54,15
31,54,15
30,54,15
30,55,15
31,55,15
31,55,15
29,55,15
30,54,15
30,55,15
30,54,15
30,54,15
29,54,15
30,54,14
30,54,14
30,54,14
31,54,15
31,54,15
30,54,14
30,55,15
30,55,15
31,54,14
31,54,14
30,55,14
31,54,14
31,54,14
32,54,14
31,54,14
30,54,14
30,54,14
31,54,14
31,54,14
31,54,14
31,55,13
31,54,14
31,54,15
31,54,14
30,54,14
31,54,14
30,54,13
31,54,14
31,54,14
30,55,15
31,55,15
31,54,15
31,54,15
31,54,15
31,54,14
30,54,14
31,54,15
31,54,15
30,54,16
30,54,15
31,54,15
32,53,15
31,54,15
31,54,15
32,54,15
32,54,16
32,54,15
31,54,16
31,54,15
32,53,15
32,54,14
31,54,15
31,54,15
32,53,14
32,53,14
32,53,15
31,53,15
32,53,14
32,53,14
31,53,15
32,54,14
32,53,14
32,54,15
32,53,15
31,53,14
31,54,15
32,54,15
31,54,14
32,54,14
32,53,14
32,53,14
31,52,15
32,52,14
32,50,13
30,53,15
30,54,15
31,55,15
31,55,15
32,55,14
32,55,14
31,55,13
31,55,14
31,55,13
30,55,13
30,55,12
30,55,12
30,55,12
30,55,12
29,56,12
29,56,12
30,56,13
30,56,11
30,56,12
30,56,12
30,56,12
30,56,12
30,55,12
29,55,12
29,55,12
30,55,12
29,54,11
30,54,12
30,55,13
29,54,13
29,54,12
30,54,14
29,54,14
30,55,14
30,55,14
30,55,14
30,56,15
30,56,14
30,55,14
30,55,14
29,54,14
29,54,13
29,55,14
29,55,14
29,55,14
30,55,15
29,56,15
29,56,15
30,56,15
30,55,15
30,55,15
29,55,14
31,55,15
31,55,15
32,55,15
31,55,15
32,55,15
32,55,15
31,55,15
32,54,14
31,54,14
31,53,14
31,53,14
32,53,14
31,52,13
31,51,13
32,51,13
31,51,13
31,50,13
31,51,13
30,51,14
29,51,15
28,51,15
28,51,15
27,52,15
27,53,17
28,53,16
20,55,16
24,53,17
18,54,17
24,53,20
12,54,17
20,54,28
13,55,19
15,54,31
5,56,23
1,59,29
3,58,27
-7,57,24
5,54,41
-10,56,30
-9,53,34
-10,51,37
-24,52,26
-16,49,42
-21,50,38
-28,49,29
-11,45,56
-6,36,62
-54,40,47
-43,38,44
-41,33,38
-38,34,25
-53,36,10
-44,44,27
-43,45,32
-49,57,13
-52,58,8
-48,56,10
-56,54,5
-55,49,3
-52,43,10
-45,44,9
-48,39,16
-39,38,22
-29,38,27
-25,38,33
-14,37,44
-2,41,50
9,42,62
-17,47,52
-11,46,54
-19,48,42
-14,47,39
-14,46,34
-11,41,44
-18,44,48
-5,42,62
-4,40,57
-14,42,44
-14,42,34
-18,42,28
-33,43,32
-25,42,35
-10,43,34
5,35,44
-18,38,43
-24,36,43
-8,38,50
-5,43,52
-15,40,56
-16,32,73
-15,27,67
-1,33,60
0,27,69
-10,30,59
-25,37,58
-13,37,60
-8,44,45
-4,45,40
-33,47,11
-5,41,33
-1,36,55
-35,42,50
-9,36,49
-17,38,38
-27,36,38
4,30,52
-8,24,70
-9,22,88
-13,25,74
12,24,78
13,26,75
-28,27,37
-47,36,28
-23,37,36
-17,33,39
-6,34,37
1,31,49
-39,36,38
-31,26,30
-26,25,36
-18,5,75
-27,8,100
-17,16,90
3,16,71
-2,10,65
6,18,69
1,20,63
-6,20,63
-23,22,48
-53,25,17
-38,25,22
23,12,65
-36,10,43
-33,21,50
-20,2,70
-29,4,81
-12,0,92
-3,8,73
5,1,59
-10,12,52
-6,9,48
1,8,45
-8,11,64
-17,5,62
-14,1,61
-16,-3,74
-18,-7,73
-19,-8,67
-28,-3,58
-16,-1,55
-6,1,60
-6,5,52
-14,4,57
-26,2,57
-26,-1,58
-23,3,57
-28,6,52
-47,0,50
-58,1,61
-44,2,53
-50,5,43
-54,3,47
-48,7,44
-44,8,45
-48,10,48
-42,8,49
-39,6,50
-33,9,50
-28,7,49
-11,6,53
1,4,70
-13,13,62
-12,12,51
-19,7,54
-27,2,54
-32,-2,50
-35,-1,38
-38,-3,39
-38,-6,47
-39,-27,51
-58,-30,43
-40,-39,45
-38,-42,46
-36,-50,43
-37,-54,36
-32,-56,35
-29,-56,34
-25,-54,32
-20,-53,33
-19,-53,34
-15,-51,37
-12,-51,45
-5,-49,53
-14,-48,52
-11,-50,50
-26,-48,48
-2,-54,47
-18,-55,38
-24,-66,35
-16,-69,32
-11,-71,20
-41,-73,24
-15,-63,20
-17,-65,22
-37,-46,24
-37,-42,23
-30,-43,35
-34,-31,14
-54,-36,13
-39,-45,23
-20,-54,23
-46,-59,28
-42,-63,38
-43,-62,35
-13,-51,41
-10,-40,40
-32,-28,29
-50,-21,25
-39,-19,33
-46,-32,39
-51,-37,36
-30,-29,35
4,-34,36
-30,-34,31
-73,-24,33
-81,-27,39
-57,-33,41
-44,-38,43
-26,-40,47
-31,-40,39
-21,-42,18
-13,-63,41
-20,-66,52
-47,-53,45
-62,-43,38
-31,-19,44
-25,-1,38
-38,20,20
-49,18,23
-37,9,37
-68,-20,38
-68,-29,38
-40,-47,31
-63,-85,25
-66,-93,33
-54,-67,25
-40,-46,14
-59,-18,-9
-51,-13,-11
-66,-15,-5
-82,-24,9
-106,-28,13
-98,-13,26
-83,-10,25
-69,-1,17
-64,16,8
-54,25,-1
-45,22,6
-35,23,7
-32,18,15
-27,3,39
-53,1,44
-16,1,36
3,-6,38
-25,-6,66
-7,-9,79
-35,13,75
-11,5,75
-16,8,47
-20,6,62
6,1,87
-32,10,57
-31,0,69
-34,-3,59
-30,-3,58
-20,-5,62
-20,-3,58
-21,-3,65
-14,1,68
-11,2,74
-9,2,67
-16,4,84
3,9,58
-32,16,31
-43,20,27
-35,21,43
-42,27,43
-17,28,36
-6,27,40
19,19,66
-5,24,77
-17,26,82
-4,29,45
-40,29,30
-75,48,34
-31,40,49
-16,38,43
-7,19,76
-36,27,69
-12,30,42
-55,35,10
-73,48,20
-36,39,38
-9,19,51
-19,12,61
-23,19,57
-27,18,41
-30,26,34
-42,25,26
-54,40,13
-43,47,15
-35,49,22
-42,50,24
-31,50,28
-29,46,35
-19,43,62
-17,44,71
-23,44,67
-12,40,80
-11,35,80
-35,35,50
-36,34,46
-10,28,57
-12,32,47
-1,33,55
-1,36,35
-22,40,22
3,43,35
7,42,32
-3,48,32
-1,50,38
-7,52,35
-15,55,28
-13,57,30
-22,59,32
-17,64,32
-14,67,29
-29,71,28
-31,66,31
-22,56,29
-19,60,24
-22,59,22
-19,60,24
-19,59,24
-12,51,24
-3,49,27
-1,49,29
2,51,27
-1,51,22
3,54,22
4,56,19
9,57,20
12,57,22
15,57,20
17,58,20
20,58,21
21,59,20
22,59,19
20,59,20
17,58,19
23,58,22
24,57,23
22,57,22
22,55,23
26,55,21
24,53,19
23,54,19
24,54,19
27,53,22
23,53,20
18,51,21
22,53,23
19,55,23
14,55,22
13,55,25
17,56,25
16,56,23
17,56,22
18,57,22
4,57,23
2,57,25
-6,59,26
-9,57,26
-8,54,26
-16,49,25
-18,48,24
-21,46,11
-25,48,1
-32,62,-3
-44,63,-2
-43,64,3
1,55,24
30,44,42
-21,57,46
-26,53,47
4,50,57
19,46,49
-19,38,22
-33,40,13
-17,30,7
-57,35,33
-57,43,43
-53,33,24
-39,24,69
-36,19,69
-61,30,21
-37,1,75
-48,12,57
-43,8,35
-72,7,34
-50,-3,21
-90,-4,19
-71,2,15
-68,6,23
-39,4,41
-59,1,36
-55,-6,37
-53,0,31
-69,-1,26
-35,-5,42
-43,-3,41
-59,2,34
-34,-13,44
-47,-13,41
-53,-4,32
-41,-12,39
-45,-10,40
-49,-12,38
-51,-12,38
-52,-13,42
-55,-14,40
-56,-14,39
-57,-14,38
-53,-14,36
-51,-16,33
-50,-17,35
-53,-16,34
-53,-16,35
-51,-14,31
-56,-13,29
-50,-13,32
-54,-17,32
-54,-18,32
-51,-19,35
-53,-20,33
-50,-19,33
-49,-18,33
-51,-15,32
-55,-14,33
-53,-15,31
-54,-17,32
-55,-16,31
-52,-15,30
-52,-15,31
-53,-15,30
-53,-15,29
-55,-16,29
-54,-19,31
-54,-20,31
-56,-21,30
-55,-21,30
-55,-21,31
-54,-18,30
-53,-18,30
-52,-17,30
-51,-18,31
-51,-19,29
-52,-18,30
-52,-19,31
-53,-19,30
-53,-18,31
-53,-17,31
-53,-17,31
-52,-16,31
-52,-15,29
-51,-16,29
-54,-20,31
-55,-24,31
-53,-28,32
-52,-28,31
-51,-24,34
-51,-20,32
-52,-18,32
-54,-17,30
-54,-16,29
-53,-15,28
-52,-13,28
-52,-11,28
-49,-10,28
-49,-12,28
-49,-18,31
-48,-20,31
-50,-25,30
-50,-25,30
-51,-26,31
-58,-26,28
-56,-27,28
-57,-29,29
-57,-28,28
-57,-26,25
-54,-26,25
-52,-26,26
-50,-25,26
-51,-26,25
-54,-26,25
-55,-25,25
-52,-23,24
-54,-23,25
-55,-24,25
-55,-23,25
-55,-23,24
-53,-24,23
-55,-23,23
-52,-24,23
-53,-25,23
-53,-24,23
-54,-24,23
-54,-24,24
-55,-24,23
-55,-23,23
-54,-24,24
-55,-24,24
-55,-24,23
-53,-24,24
-54,-24,23
-54,-24,23
-55,-23,23
-54,-24,23
-54,-23,22
-54,-23,23
-55,-24,24
-54,-23,23
-55,-23,22
-55,-24,23
-54,-24,23
-54,-25,23
-55,-24,23
-54,-23,23
-53,-24,22
-55,-24,23
-55,-23,22
-55,-24,22
-55,-24,22
-54,-25,22
-55,-24,22
-55,-24,22
-55,-24,23
-55,-24,22
-55,-24,22
-55,-24,22
-54,-24,22
-55,-25,22
-55,-24,23
-54,-24,22
-54,-24,22
-55,-24,22
-55,-24,23
-54,-24,22
-54,-25,22
-54,-25,22
-55,-24,22
-54,-25,21
-55,-24,21
-54,-24,21
-55,-24,22
-54,-24,22
-55,-24,21
-55,-25,22
-54,-25,21
-55,-26,21
-55,-25,22
-55,-24,22
-54,-25,21
-55,-24,21
-55,-24,22
-53,-25,21
-52,-27,20
-52,-28,21
-53,-30,21
-53,-30,21
-53,-30,22
-53,-30,21
-54,-31,21
-53,-30,21
-54,-28,22
-53,-29,22
-54,-29,22
-55,-28,20
-56,-28,20
-55,-29,19
-58,-29,17
-60,-27,20
-59,-26,19
-60,-24,17
-58,-24,19
-58,-24,20
-59,-21,21
-60,-20,23
-59,-16,25
-57,-15,23
-55,-13,26
-55,-12,27
-55,-11,25
-54,-9,23
-53,-8,24
-56,-4,23
-57,-2,22
-58,-1,22
-57,1,22
-59,0,22
-58,4,22
-61,7,22
-36,5,30
-74,9,14
-63,10,18
-60,9,21
-61,9,20
-61,10,17
-64,9,16
-63,11,14
-62,11,12
-63,11,13
-65,15,8
-61,14,9
-58,15,5
-63,15,3
-49,14,11
-59,15,6
-62,17,4
-63,17,4
-67,16,4
-65,13,7
-64,13,8
-64,16,11
-67,14,6
-70,13,7
-61,11,15
-56,10,14
-51,8,18
-56,7,18
-60,7,19
-56,2,24
-63,3,21
-61,1,21
-60,2,23
-55,4,21
-54,7,21
-54,8,21
-55,7,27
-53,12,25
-62,16,23
-58,13,26
-57,13,25
-64,20,19
-67,21,15
-62,13,20
-70,17,18
-78,17,13
-81,12,13
-73,2,15
-74,11,10
-71,11,8
-54,9,13
-52,8,14
-56,11,14
-47,13,11
-48,11,8
-40,13,15
-39,14,15
-44,20,20
-45,22,25
-55,23,29
-72,20,24
-76,18,21
-75,14,28
-75,14,27
-74,15,21
-71,13,21
-69,13,18
-60,10,12
-55,6,11
-50,6,15
-50,10,14
-49,16,10
-48,17,10
-47,17,9
-50,16,14
-50,17,17
-48,10,46
-51,17,25
-56,19,16
-62,20,14
-66,23,21
-71,22,27
-73,23,27
-68,22,38
-64,21,47
-47,24,52
-46,31,42
-46,37,32
-44,45,26
-55,35,22
-28,20,23
-23,15,29
-46,16,24
-25,11,36
-37,16,43
-53,22,28
-63,22,15
-57,27,27
-53,34,27
-62,36,17
-60,38,16
-65,40,12
-61,43,21
-78,47,10
-66,49,13
-63,46,18
-63,37,24
-48,25,28
-48,27,25
-33,25,21
-31,24,24
-27,23,24
-20,24,34
-10,30,46
-22,28,34
-15,31,59
-39,33,52
-22,30,55
-19,31,52
-10,30,56
-29,27,45
-46,35,42
-48,38,40
-46,39,39
-46,38,39
-41,45,39
-44,45,37
-26,34,38
-26,25,41
-36,29,37
-6,36,43
-2,35,44
-40,44,49
-33,39,55
-12,29,63
-8,29,60
-3,23,62
-11,22,74
4,23,87
-19,27,66
-37,40,37
-44,41,13
-30,45,10
-27,43,17
0,40,34
-3,35,47
-22,47,32
-2,40,38
-4,27,53
1,23,81
1,21,81
29,20,86
32,20,97
7,28,78
-21,18,55
-51,22,44
-33,31,21
2,18,26
-18,17,33
-16,18,38
-24,12,49
-32,-1,72
-17,-4,90
-2,-1,86
11,4,79
41,-12,76
-8,19,47
-3,15,45
-17,18,33
-31,30,29
22,8,54
-15,12,54
-5,2,69
19,-19,89
-1,-11,85
-2,-12,68
-1,-16,57
-34,-12,54
-20,-18,67
-41,-12,42
-53,-6,52
-55,-1,46
-51,4,40
-46,6,43
-44,2,44
-50,-1,39
-65,-7,24
-62,-7,23
-55,-7,22
-54,-9,20
-63,-7,18
-63,-5,16
-56,-7,16
-70,-8,7
-77,-16,19
-77,-17,25
-78,-4,22
-62,1,26
-60,-1,25
-63,1,27
-51,2,31
-46,-2,31
-64,-7,19
-49,-12,11
-54,-15,13
-74,2,8
-52,6,19
-59,3,10
-43,-2,7
-16,5,35
-68,-17,10
-82,4,-7
-55,6,8
-61,-7,11
-57,-6,-8
-66,-22,6
-36,-23,14
-47,-24,-22
-60,-27,-33
-77,-32,-37
-53,-19,-41
-37,-20,-14
-37,-28,-20
-46,-29,-26
-19,-33,-19
-40,-38,-33
-57,-36,-30
-44,-34,-23
-53,-31,-28
-32,-43,-15
-40,-42,-28
-43,-43,-31
-35,-41,-24
-41,-43,-25
-32,-39,-12
-34,-43,-12
-40,-46,-13
-41,-45,-5
-36,-49,8
-47,-53,9
-43,-53,10
-45,-56,7
-48,-60,8
-57,-62,9
-61,-65,7
-72,-67,7
-66,-59,6
-63,-54,7
-53,-50,8
-53,-50,12
-48,-51,9
-49,-51,8
-54,-53,-8
-53,-51,-17
-55,-48,-19
-55,-41,-17
-57,-39,-16
-57,-36,-19
-56,-32,-26
-56,-31,-29
-51,-30,-31
-53,-30,-29
-51,-27,-21
-50,-24,-17
-50,-20,-12
-53,-16,-12
-52,-15,-14
-56,-11,-14
-56,-11,-11
-54,-8,-4
-54,-6,-1
-55,-1,3
-59,3,2
-60,3,1
-61,1,3
-59,0,6
-54,-2,10
-52,-5,10
-52,-8,9
-55,-5,7
-56,-5,5
-58,-6,-1
-56,-7,-1
-53,-6,0
-52,-5,3
-51,-4,3
-49,-8,5
-49,-6,9
-52,-3,16
-56,-6,13
-57,-8,15
-63,-13,15
-66,-14,15
-62,-21,19
-61,-22,17
-66,-27,12
-66,-30,9
-62,-33,2
-56,-34,1
-56,-36,1
-53,-35,4
-52,-34,3
-55,-30,7
-55,-30,7
-58,-28,5
-68,-33,7
-68,-35,7
-65,-27,9
-63,-23,14
-50,-18,15
-59,-12,14
-56,-8,11
-54,-6,15
-49,-2,18
-54,-1,16
-55,1,18
-62,4,16
-65,5,16
-63,8,21
-62,12,24
-62,15,25
-66,18,27
-68,18,26
-65,21,31
-57,21,36
-59,25,40
-58,26,31
-63,25,21
-67,15,7
-67,14,5
-73,17,11
-64,16,22
-54,15,28
-48,18,31
-52,20,25
-56,22,15
-53,23,14
-54,22,15
-59,21,12
-57,23,14
-55,23,17
-56,21,20
-61,22,23
-62,25,21
-60,28,20
-62,25,19
-63,25,20
-62,31,19
-60,32,18
-60,32,20
-58,31,19
-51,34,19
-33,37,18
-31,41,17
-32,41,15
-34,37,16
-39,34,19
-41,28,24
-35,23,29
-43,26,29
-43,26,29
-52,29,30
-53,30,32
-55,25,34
-54,26,36
-54,27,35
-53,22,32
-55,22,31
-53,23,31
-55,21,31
-57,20,34
-57,19,34
-58,20,33
-56,16,31
-55,15,31
-51,15,31
-50,15,32
-51,17,31
-55,18,31
-56,20,30
-56,22,30
-56,23,29
-52,24,30
-51,25,31
-50,26,31
-49,26,30
-48,25,30
-48,25,33
-48,26,34
-53,24,36
-54,24,36
-60,28,34
-56,31,34
-51,32,38
-38,36,36
-36,42,32
-31,43,29
-26,43,24
-22,44,22
-20,46,24
-22,46,24
-26,47,18
-22,45,22
-20,39,34
-30,32,34
-34,26,39
-47,17,36
-54,17,37
-54,13,41
-48,11,42
-41,15,41
-44,6,43
-47,2,39
-46,4,38
-45,4,36
-52,-2,44
-51,-1,48
-58,0,44
-52,-3,43
-48,-3,42
-37,-8,50
-38,-14,49
-45,-10,48
-39,-5,50
-30,-4,60
-30,-7,58
-25,-9,51
-26,-22,36
-27,-29,26
-43,-41,5
-49,-45,-13
-54,-39,-22
-43,-39,-13
-53,-35,-23
-62,-35,-34
-71,-36,-37
-58,-31,-21
-61,-27,-21
-57,-30,-23
-66,-29,-40
-65,-26,-38
-39,-24,-11
-28,-26,-19
-38,-23,-44
-53,-26,-41
-56,-30,-32
-81,-43,-50
-61,-55,-22
-45,-46,-21
-46,-47,-25
-43,-49,-3
-37,-47,-4
-58,-40,-21
-45,-38,-10
-42,-36,0
-44,-36,-8
-58,-35,-16
-55,-37,-14
-50,-39,-10
-51,-40,-13
-53,-42,-12
-50,-42,-10
-56,-40,-11
-55,-42,-12
-59,-42,-15
-73,-42,-21
-71,-44,-18
-55,-49,-4
-46,-49,7
-30,-46,22
-40,-49,30
-48,-49,26
-17,-47,36
-27,-50,44
-43,-47,53
-23,-45,51
-32,-49,53
-34,-49,48
-56,-41,32
-36,-37,39
-25,-44,39
-31,-47,41
-26,-50,50
-38,-45,43
-36,-40,34
-32,-38,33
-33,-38,33
-34,-39,33
-36,-41,35
-40,-38,30
-40,-39,31
-36,-32,25
-40,-32,34
-40,-36,41
-47,-38,44
-62,-30,37
-53,-20,34
-60,-18,38
-56,-7,26
-42,-7,14
-22,-10,32
-33,-13,16
-31,-14,29
-2,-22,13
-39,-30,18
-56,-19,45
-68,-17,25
-52,-21,22
-67,-11,40
-55,-10,32
-53,-18,13
-53,-14,16
-58,-10,16
-70,-6,10
-61,0,9
-55,-2,4
-56,-5,1
-68,-14,7
-27,-16,16
-43,-6,11
-38,-5,22
-40,9,33
-39,7,29
-57,-2,20
-114,-8,18
-79,-14,41
-54,-33,36
-75,-31,25
-35,-35,10
-62,-32,26
-57,-25,29
-49,-7,21
-53,2,18
-76,3,34
-46,-2,42
0,-17,45
-55,-38,52
-54,-47,74
-31,-42,78
-51,-34,47
-26,-20,54
-26,-18,53
-31,-20,40
-45,-24,28
-45,-31,24
-51,-48,22
-51,-52,21
-48,-52,6
-54,-53,-2
-57,-57,15
-27,-52,7
-36,-49,-4
-24,-52,5
-14,-54,18
-12,-56,34
-24,-48,25
-30,-46,21
-40,-51,21
-38,-52,19
-27,-50,19
-33,-49,13
-50,-58,-2
-48,-78,17
-42,-71,13
-46,-47,2
-49,-40,1
-48,-37,-1
-42,-37,-3
-31,-41,-3
-23,-44,-3
-27,-45,-1
-55,-56,2
-44,-55,8
-18,-59,21
-31,-68,29
-43,-83,21
-50,-94,10
-56,-93,5
-58,-83,9
-45,-83,23
-36,-61,12
-41,-48,4
-23,-32,-4
-31,-30,2
-33,-30,4
-32,-24,3
-34,-23,0
-34,-26,-2
-26,-30,2
-23,-34,0
-36,-44,28
-49,-63,18
-52,-89,41
-79,-76,38
-53,-68,43
-38,-35,35
-34,-23,29
-21,-20,41
-23,-21,51
-32,-11,35
-30,-14,34
-50,-22,10
-16,-48,5
-20,-63,12
-37,-85,18
-28,-101,36
-27,-79,36
-17,-69,37
-29,-54,23
-23,-46,25
-18,-49,26
-30,-56,34
-37,-50,30
-34,-51,21
-21,-52,19
-31,-54,16
-38,-51,11
-32,-51,15
-15,-51,24
-28,-53,23
-31,-51,20
-28,-53,17
-29,-56,12
-43,-55,3
-39,-52,3
-19,-60,15
-26,-60,13
-25,-58,-7
-20,-59,-8
-41,-57,-21
-40,-49,-29
-32,-51,-22
-28,-53,-20
-26,-53,-20
-29,-58,-22
-11,-64,-5
-18,-62,-13
-12,-57,-10
-27,-59,-15
-22,-59,-15
-21,-60,-11
-20,-64,5
-24,-61,-6
-22,-63,-10
-23,-58,-17
-22,-58,-18
-23,-51,-26
-18,-50,-27
-18,-54,-24
-23,-54,-27
-16,-55,-23
-25,-54,-20
-32,-55,-19
-30,-55,-17
-27,-50,-18
-29,-53,-16
-20,-57,-19
-21,-55,-20
-27,-60,-23
-22,-59,-26
-23,-61,-43
-22,-55,-37
-11,-51,-26
-16,-52,-16
-28,-50,-20
-20,-56,5
-35,-55,-7
-39,-52,-30
-34,-56,-34
-34,-49,-38
-7,-47,-18
-3,-46,-16
-22,-51,-16
-35,-54,-20
-22,-57,-11
-49,-56,-20
-46,-59,-25
-30,-58,-14
-20,-56,-5
-30,-59,-14
-32,-60,-20
-29,-50,-21
-31,-47,-21
-29,-43,-19
-27,-50,-21
-29,-52,-22
-34,-56,-20
-31,-52,-22
-27,-51,-24
-32,-52,-22
-31,-53,-20
-31,-52,-20
-26,-53,-19
-30,-54,-21
-32,-52,-22
-31,-50,-21
-33,-49,-22
-37,-46,-27
-26,-47,-22
-26,-52,-16
-32,-50,-24
-31,-52,-28
-33,-53,-27
-27,-51,-32
-26,-49,-35
-19,-53,-28
-17,-54,-22
-22,-51,-27
-34,-49,-29
-31,-49,-25
-32,-47,-32
-23,-47,-28
-28,-48,-28
-27,-49,-28
-24,-51,-30
-26,-51,-31
-29,-50,-29
-30,-51,-29
-27,-51,-30
-30,-49,-28
-30,-47,-28
-30,-47,-30
-30,-48,-30
-30,-48,-31
-20,-50,-29
-22,-50,-26
-26,-51,-28
-30,-52,-29
-31,-52,-28
-29,-48,-30
-29,-46,-30
-34,-45,-28
-37,-44,-29
-36,-46,-30
-29,-50,-28
-26,-54,-27
-25,-60,-24
-25,-57,-22
-29,-49,-31
-27,-49,-28
-26,-48,-19
-27,-50,-22
-34,-51,-28
-32,-43,-32
-29,-46,-31
-28,-47,-29
-27,-50,-30
-30,-49,-32
-26,-51,-28
-29,-56,-29
-28,-52,-29
-30,-52,-28
-20,-53,-23
-21,-52,-24
-33,-52,-25
-30,-53,-27
-33,-51,-28
-31,-50,-28
-31,-49,-30
-28,-48,-27
-25,-47,-27
-26,-47,-27
-27,-50,-26
-28,-52,-25
-26,-54,-20
-24,-54,-18
-30,-51,-22
-30,-53,-21
-32,-55,-23
-27,-52,-25
-25,-53,-23
-27,-55,-22
-24,-53,-21
-28,-52,-23
-27,-52,-20
-26,-52,-20
-28,-53,-20
-29,-54,-20
-27,-54,-21
-29,-53,-21
-27,-54,-21
-27,-54,-22
-27,-53,-22
-28,-53,-21
-29,-53,-21
-27,-53,-21
-27,-53,-22
-27,-53,-23
-27,-53,-22
-25,-54,-21
-25,-54,-21
-27,-55,-21
-31,-55,-22
-30,-55,-21
-30,-55,-20
-32,-53,-18
-32,-52,-19
-30,-49,-21
-24,-52,-18
-20,-52,-9
-50,-49,-27
-46,-43,-27
-24,-45,-17
-27,-48,-18
-42,-50,-33
-50,-51,-40
-35,-57,-23
-42,-58,-18
-53,-56,-25
-44,-59,-23
-36,-59,-18
-23,-48,1
-20,-43,8
-30,-42,11
-31,-39,19
-31,-40,19
-36,-40,23
-25,-44,37
-27,-41,35
-13,-45,36
-34,-39,42
-2,-37,34
-45,-46,30
-23,-42,34
-10,-39,31
-84,-54,-23
1,-52,13
-31,-52,9
-42,-53,15
-28,-54,2
-27,-101,-25
-54,-88,15
-25,-72,15
-7,-67,13
-12,-64,29
-16,-54,21
-11,-54,22
-17,-57,28
-15,-57,35
-5,-53,21
-52,-58,-8
-49,-52,6
-9,-56,11
-19,-55,-1
-26,-54,-14
-24,-56,-15
-15,-63,-7
-17,-69,-21
-10,-72,-16
-43,-70,-26
-18,-71,-4
5,-70,24
-1,-68,0
-30,-61,-9
-10,-64,0
-11,-63,-10
-34,-55,-25
-37,-53,-26
-20,-54,-17
-18,-51,-18
-23,-53,-14
-34,-51,-16
-31,-53,-10
-33,-54,-16
-36,-54,-21
-28,-55,-18
-28,-54,-20
-32,-54,-25
-28,-57,-15
-28,-57,-18
-18,-60,-9
-31,-60,-6
-19,-59,-1
-33,-54,-19
-30,-55,-23
-45,-49,-26
-27,-43,-9
-37,-47,-18
-32,-49,-22
-19,-53,-21
-17,-55,-25
-27,-58,-28
-26,-57,-25
-25,-46,-27
-36,-63,-27
-16,-60,-19
-20,-57,-18
-16,-54,-22
-24,-54,-19
-24,-55,-9
-28,-52,-12
-36,-46,-23
-30,-49,-20
-30,-51,-20
-32,-55,-23
-32,-54,-26
-23,-55,-25
-23,-53,-26
-18,-55,-21
-30,-58,-25
-28,-58,-22
-26,-59,-19
-24,-58,-18
-26,-56,-17
-22,-53,-16
-18,-53,-16
-23,-52,-18
-27,-53,-19
-29,-53,-19
-26,-53,-16
-27,-57,-12
-28,-57,-9
-18,-55,-18
-37,-59,-19
-23,-59,-15
-25,-52,-21
-14,-53,-12
-21,-54,-11
-28,-49,-25
-28,-48,-29
-19,-59,-21
-19,-51,-35
-17,-80,-1
-28,-71,-27
2,-62,-17
-31,-60,-3
-7,-56,-26
-23,-61,-42
-6,-63,-44
5,-64,-19
-9,-68,-12
-32,-60,-9
-7,-57,-4
-15,-63,-5
-21,-57,-10
-19,-56,-8
-24,-58,-9
-19,-60,-8
-16,-65,-6
-31,-68,-11
-36,-67,-14
-52,-70,-21
-42,-74,-14
-28,-77,1
-8,-72,8
-13,-60,22
-33,-47,10
-41,-44,8
-27,-43,18
-24,-39,19
-27,-34,11
-28,-37,14
-29,-40,16
-26,-44,19
-29,-47,16
-29,-50,23
-38,-49,18
-33,-52,26
-41,-53,27
-40,-52,25
-36,-50,13
-23,-52,16
-9,-50,30
-7,-50,23
-24,-54,21
-36,-58,33
-35,-56,33
-29,-54,42
-29,-50,42
-28,-44,33
-28,-45,27
-29,-47,26
-29,-49,28
-29,-50,28
-29,-53,28
-30,-52,27
-26,-52,25
-29,-52,22
-28,-52,26
-29,-51,26
-32,-49,23
-33,-50,26
-34,-51,26
-43,-51,26
-39,-50,22
-41,-49,22
-41,-47,32
-43,-41,32
-42,-33,33
-40,-28,34
-37,-17,17
-22,-24,19
-18,-32,21
-20,-46,14
-24,-56,16
-23,-75,16
-32,-78,20
-23,-82,23
-18,-77,23
-19,-71,20
-25,-66,23
-25,-62,27
-19,-57,31
-21,-50,29
-26,-47,31
-31,-46,33
-31,-48,32
-31,-51,32
-28,-51,30
-29,-49,31
-26,-49,31
-23,-48,29
-29,-48,21
-34,-46,26
-35,-46,29
-33,-45,29
-31,-45,27
-31,-45,26
-31,-46,25
-29,-49,23
-28,-49,24
-32,-49,26
-32,-49,26
-32,-48,28
-31,-48,30
-32,-48,30
-32,-47,28
-32,-47,28
-33,-46,27
-33,-48,28
-34,-46,28
-33,-45,30
-34,-45,30
-34,-46,29
-34,-46,28
-35,-45,29
-34,-46,29
-33,-46,29
-33,-46,29
-32,-47,29
-33,-47,28
-33,-47,28
-33,-47,28
-33,-47,28
-34,-48,27
-32,-48,27
-32,-48,27
-31,-47,27
-30,-47,27
-31,-47,27
-32,-47,28
-34,-49,27
-33,-49,26
-32,-50,26
-28,-51,25
-29,-51,25
-28,-52,25
-29,-52,25
-28,-52,24
-29,-52,25
-29,-53,25
-26,-52,22
-26,-53,24
-28,-54,23
-28,-54,24
-28,-53,24
-29,-52,24
-29,-52,25
-29,-52,26
-29,-52,25
-29,-52,24
-28,-54,24
-27,-54,25
-25,-53,25
-24,-54,25
-26,-54,20
-24,-55,22
-28,-54,23
-26,-53,25
-27,-53,26
-28,-53,26
-24,-53,25
-25,-52,26
-29,-52,23
-28,-52,22
-26,-57,19
-28,-61,20
-23,-63,18
-23,-63,14
-24,-61,26
-1,-58,45
-20,-54,40
-39,-47,41
-38,-43,39
-27,-35,16
-24,-34,15
-26,-46,38
-50,-45,33
-42,-42,31
-20,-42,16
-21,-45,16
-6,-60,35
-26,-61,24
-19,-59,26
-7,-61,43
-14,-54,42
-19,-56,27
-22,-60,33
-31,-57,24
-39,-53,31
-22,-54,22
-14,-54,20
-1,-57,26
-20,-52,25
-33,-52,30
-19,-52,36
-13,-53,44
-13,-53,40
-3,-56,35
5,-53,29
18,-58,25
13,-62,19
35,-70,17
31,-98,34
-67,-90,-49
65,-102,2
-46,-80,-49
-37,-62,-23
-21,-58,-19
-20,-53,-13
-2,-52,2
-1,-52,7
-5,-53,16
-15,-54,13
-14,-59,6
-19,-63,8
-21,-68,20
-5,-63,25
-16,-67,19
-9,-76,21
-17,-76,21
-23,-77,4
-37,-74,-18
-16,-79,-23
-29,-78,-12
3,-80,9
-1,-69,36
9,-72,31
-7,-60,10
-13,-60,2
-25,-61,6
-25,-62,-1
-29,-67,2
-33,-67,24
-17,-45,11
-29,-60,8
-32,-60,20
-41,-55,15
-48,-50,16
-41,-47,21
-30,-36,16
-21,-31,24
-37,-35,25
-54,-40,29
-58,-29,24
-49,-32,23
-50,-34,30
-47,-37,32
-47,-39,32
-51,-40,28
-51,-38,42
-47,-37,42
-50,-38,41
-46,-38,42
-49,-33,44
-46,-31,41
-45,-27,32
-40,-21,29
-41,-23,33
-49,-25,35
-42,-23,35
-41,-25,36
-34,-25,46
-35,-31,50
-80,-17,54
-51,-18,59
-52,-13,47
-54,-15,41
-34,-32,26
-17,-36,30
-5,-34,35
-17,-30,45
-28,-30,53
-28,-26,50
-19,-18,53
-40,-31,65
-38,-31,56
-18,-31,54
-36,-28,37
-49,-19,30
-61,10,-9
-14,4,31
-78,-2,37
-11,-6,56
-9,-8,56
-17,-8,57
-13,-9,62
-24,-3,57
-27,-1,55
-30,-1,56
-29,-1,55
-30,-1,53
-23,-1,56
-28,1,60
-23,1,61
-24,2,62
-27,-1,67
-14,-2,66
-20,0,64
-15,5,61
-20,6,60
-22,7,59
-16,12,54
-25,16,42
-21,20,34
-36,15,35
-39,17,33
-38,8,35
-37,0,44
-64,7,50
-34,7,51
-28,-17,54
-43,-30,67
-54,-14,50
-82,-4,26
-42,0,29
-19,-3,33
-61,-6,20
-97,-12,11
-83,-12,16
-67,-21,12
-69,-18,18
-52,-15,23
-54,-18,19
-74,-23,11
-64,-11,28
-55,-9,32
-59,-8,28
-64,-10,26
-47,-19,32
-36,-25,40
-60,-25,31
-70,-25,28
-65,-24,31
-65,-20,27
-65,-17,35
-65,-15,36
-65,-15,33
-58,-11,33
-48,-12,41
-41,-8,35
-7,7,44
-23,9,34
-31,8,39
-21,4,57
-31,1,62
-23,-7,62
-21,-4,61
-30,5,46
-17,6,56
-25,-10,98
-21,-4,71
-38,0,57
-12,1,63
-19,-5,62
-70,9,-4
-106,19,-9
-101,22,5
-66,19,34
-42,20,33
-10,18,34
-16,19,58
-9,18,57
-37,22,51
-29,20,61
-25,17,55
-35,13,61
-22,11,66
-29,7,59
-25,5,67
-11,3,74
2,-2,75
-17,2,59
-30,4,45
-16,12,37
-2,20,49
-1,12,64
-55,25,31
-41,22,13
-61,25,33
-67,15,38
-76,-3,36
-58,0,22
-29,-2,46
-44,-2,31
-10,1,-8
-48,2,-20
-23,-18,6
-44,-21,-24
-128,-61,-72
-128,-92,-64
-111,-98,16
-79,-78,32
-22,-48,36
-46,-49,22
-55,-49,12
-78,-45,-7
-60,-39,2
-66,-32,7
-80,-26,1
-54,-12,16
-50,4,22
-59,25,4
-49,28,-10
-44,20,4
-42,23,26
-46,22,19
-45,19,17
-55,13,24
-56,6,32
-85,2,16
-58,-1,26
-45,14,21
-49,21,11
-65,21,-7
-66,24,-13
-71,20,-17
-50,14,-14
-55,12,-18
-58,9,-18
-57,11,-23
-52,14,-23
-46,18,-22
-49,19,-23
-53,23,-36
-53,25,-42
-45,29,-50
-49,19,-48
-77,18,-42
-65,11,-40
-22,11,-33
-61,1,-46
-68,0,-38
-39,6,-34
-41,10,-46
-57,13,-50
-52,19,-44
-54,17,-46
-54,12,-43
-58,9,-40
-59,8,-38
-55,8,-36
-57,6,-35
-51,3,-32
-55,2,-30
-58,3,-32
-55,4,-31
-49,7,-25
-52,10,-25
-53,12,-24
-50,15,-24
-47,16,-23
-45,16,-23
-50,18,-28
-49,21,-28
-43,26,-31
-42,25,-33
-42,28,-40
-35,29,-42
-36,28,-49
-32,21,-51
-34,20,-53
-42,17,-62
-40,13,-67
-34,2,-64
-37,0,-55
-36,11,-55
-29,20,-51
-35,24,-54
-39,22,-57
-39,17,-56
-42,10,-54
-39,11,-52
-39,15,-46
-44,21,-41
-42,23,-41
-41,25,-43
-42,23,-44
-38,18,-49
-38,13,-53
-37,11,-54
-36,13,-48
-36,16,-48
-37,24,-48
-35,23,-43
-33,24,-42
-37,26,-48
-39,23,-47
-44,18,-54
-38,13,-49
-37,11,-48
-40,12,-50
-29,11,-51
-26,15,-58
-27,11,-59
-27,10,-60
-30,9,-56
-33,7,-50
-27,4,-50
-25,5,-59
-23,7,-56
-27,8,-60
-31,9,-60
-33,8,-52
-38,7,-47
-41,8,-50
-43,11,-50
-42,12,-50
-42,13,-49
-41,15,-48
-42,15,-52
-37,12,-52
-38,10,-52
-35,6,-51
-34,2,-49
-32,-2,-47
-28,-4,-54
-27,-5,-61
-23,-12,-61
-24,-13,-64
-22,-17,-56
-24,-19,-52
-27,-18,-48
-32,-11,-49
-34,-10,-50
-32,-8,-50
-45,-8,-57
-48,-9,-55
-48,-11,-55
-54,-13,-53
-61,-20,-46
-58,-23,-41
-57,-22,-39
-62,-20,-44
-64,-19,-45
-68,-16,-49
-69,-13,-40
-62,-7,-19
-64,3,-21
-43,-4,-9
-46,-10,-5
-45,-8,2
-62,-1,4
-56,4,4
-51,11,17
-48,12,21
-46,10,10
-53,7,10
-56,5,17
-68,12,11
-50,13,14
-53,17,8
-64,14,10
-59,14,14
-58,16,15
-69,14,15
-71,8,10
-61,6,3
-84,-5,-4
-75,-10,-1
-60,-12,5
-72,-12,1
-74,-14,-5
-76,-20,-11
-68,-22,-5
-74,-21,-3
-62,-20,1
-58,-19,7
-68,-17,-2
-52,-16,-3
-43,-10,-2
-47,-12,-3
-49,-8,-2
-51,-7,0
-57,-5,-3
-55,-7,-4
-49,-7,-1
-28,-10,21
-35,-20,26
-85,-16,15
-86,-1,17
-62,-4,19
-36,-15,28
-26,-22,34
-87,-28,57
-29,-17,69
-37,-18,47
-2,-48,58
5,-51,56
-17,-53,37
-19,-45,32
5,-33,37
-12,-41,28
4,-47,48
5,-53,56
0,-54,50
-3,-57,46
-9,-54,46
-14,-48,43
-15,-47,50
-12,-46,50
-13,-37,40
-17,-40,37
-15,-36,26
-26,-43,16
-50,-67,8
-56,-84,14
-49,-84,13
-39,-63,6
-32,-58,6
-47,-69,5
-91,-75,-2
-1,-104,19
-80,-99,6
-29,-75,14
-39,-62,26
-61,-33,21
-34,-36,32
-35,-16,20
-35,-11,12
-38,-2,1
-41,3,-3
-45,7,-9
-47,9,-13
-58,11,-19
-52,13,-20
-52,15,-20
-55,18,-22
-54,18,-22
-63,17,-32
-62,18,-35
-57,17,-32
-64,7,-22
-60,4,-17
-63,1,-19
-56,-2,-18
-45,-10,-8
-53,-17,-11
-76,-25,-17
-61,-21,-5
-63,-21,1
-38,-4,24
-28,-7,40
-34,-12,56
-44,-11,56
-27,-21,53
-37,-21,54
-73,-16,52
-22,-8,70
18,-16,82
-16,-12,65
-21,-14,57
-17,-22,52
19,-37,46
-9,-52,45
-31,-54,65
-32,-48,50
-26,-27,39
-5,-34,30
-23,-32,20
-11,-57,36
-29,-56,17
-78,-47,-17
-97,-36,-19
-80,-45,-7
-43,-47,-4
-56,-56,2
-68,-59,7
-49,-58,18
-40,-27,17
-44,-17,6
-43,-14,15
-43,-21,11
-26,-25,9
-22,-36,27
-26,-40,29
-27,-59,23
-28,-62,23
-34,-70,15
-64,-76,-1
-28,-67,24
-38,-65,9
-40,-61,7
-41,-55,7
-42,-54,9
-43,-50,10
-29,-49,20
-27,-50,23
-31,-55,15
-40,-55,4
-51,-56,-3
-43,-57,1
-44,-56,2
-22,-56,13
-27,-61,8
-51,-64,-1
-50,-65,-2
-36,-68,12
-36,-67,17
-40,-65,17
-39,-63,13
-36,-59,13
-18,-50,18
-10,-45,23
-26,-50,15
-38,-46,21
-38,-48,25
-32,-47,30
-32,-44,29
-17,-44,34
-7,-43,36
-34,-46,23
-33,-45,29
-28,-45,27
-23,-44,8
-20,-46,8
-16,-46,9
-31,-46,-5
-57,-44,-20
-61,-37,-28
-61,-34,-30
-69,-30,-34
-61,-28,-31
-62,-29,-20
-46,-30,-14
-47,-30,-20
-49,-32,-8
-57,-30,-13
-65,-30,-38
-56,-27,-36
-59,-26,-31
-68,-25,-31
-53,-20,-27
-66,-17,-21
-57,-13,-26
-52,-4,-37
-50,-3,-31
-59,5,-36
-54,5,-32
-60,8,-36
-68,5,-34
-66,5,-33
-54,8,-27
-57,8,-25
-50,13,-30
-51,15,-34
-52,15,-31
-52,15,-27
-53,18,-29
-49,19,-25
-47,21,-25
-53,22,-27
-48,23,-23
-42,24,-23
-54,26,-30
-51,27,-29
-48,26,-27
-54,28,-31
-53,27,-30
-47,24,-21
-51,25,-26
-57,25,-26
-51,23,-20
-50,24,-26
-60,25,-31
-59,23,-25
-50,25,-25
-50,25,-23
-54,25,-21
-55,25,-24
-51,27,-24
-54,22,-19
-58,25,-20
-55,25,-21
-52,25,-24
-52,27,-23
-54,26,-25
-54,26,-24
-53,26,-24
-54,26,-23
-54,26,-23
-53,26,-23
-56,26,-26
-53,26,-22
-54,26,-21
-53,27,-24
-53,27,-25
-54,26,-21
-53,26,-21
-54,26,-25
-53,25,-22
-54,25,-21
-54,26,-23
-54,27,-25
-52,26,-21
-54,25,-21
-54,26,-23
-53,26,-24
-54,26,-22
-53,25,-22
-54,26,-23
-54,26,-25
-54,25,-24
-54,25,-23
-54,25,-23
-55,24,-22
-60,22,-15
-59,23,-12
-53,25,-18
-51,26,-25
-60,25,-33
-50,27,-28
-49,27,-31
-56,26,-35
-54,25,-33
-51,24,-27
-45,24,-25
-51,25,-25
-53,24,-25
-54,24,-25
-53,24,-24
-54,25,-24
-55,24,-23
-55,23,-21
-56,24,-22
-57,23,-23
-57,23,-23
-55,23,-21
-56,23,-22
-54,23,-22
-51,23,-19
-54,22,-17
-54,23,-19
-57,24,-23
-58,22,-22
-57,22,-23
-55,22,-20
-58,22,-21
-58,21,-24
-60,21,-23
-57,21,-24
-56,21,-22
-56,21,-22
-56,20,-20
-57,20,-19
-57,19,-20
-57,19,-21
-56,19,-22
-58,19,-23
-58,18,-22
-59,18,-21
-59,19,-21
-58,19,-21
-58,18,-21
-58,18,-22
-58,18,-22
-57,18,-20
-58,18,-21
-58,18,-21
-57,18,-21
-58,18,-21
-58,18,-21
-58,18,-22
-58,18,-22
-57,18,-22
-57,18,-21
-58,18,-22
-58,18,-21
-58,18,-21
-57,18,-21
-58,18,-21
-58,18,-21
-56,18,-21
-56,18,-22
-59,18,-21
-60,18,-21
-59,18,-20
-59,18,-20
-58,17,-21
-57,18,-21
-56,18,-21
-58,18,-23
-58,17,-22
-58,17,-21
-57,17,-21
-57,18,-21
-58,18,-21
-59,18,-21
-58,18,-21
-58,17,-22
-58,17,-22
-58,17,-22
-57,17,-21
-58,17,-21
-58,17,-21
-58,18,-22
-58,18,-21
-59,17,-21
-58,17,-21
-58,17,-20
-57,18,-21
-59,17,-22
-58,18,-21
-58,18,-21
-58,18,-21
-58,17,-21
-58,18,-21
-59,17,-21
-59,17,-21
-58,18,-20
-58,18,-20
-58,18,-20
-59,18,-20
-59,18,-20
-58,18,-20
-58,18,-20
-58,17,-20
-59,17,-20
-59,17,-20
-58,18,-20
-58,18,-20
-58,18,-20
-59,18,-19
-59,18,-19
-58,18,-19
-58,17,-20
-58,17,-20
-58,17,-20
-59,17,-20
-58,17,-19
-58,17,-19
-58,17,-19
-58,17,-20
-58,17,-20
-58,17,-20
-58,18,-20
-59,18,-20
-59,18,-20
-59,18,-20
-58,18,-20
-58,18,-20
-58,18,-20
-58,17,-20
-59,17,-20
-58,17,-20
-58,17,-20
-58,17,-20
-58,17,-20
-59,18,-21
-59,18,-20
-58,18,-20
-58,17,-20
-58,17,-20
-59,18,-20
-59,17,-21
-59,17,-20
-58,17,-20
-58,17,-21
-57,17,-20
-59,18,-20
-59,17,-21
-58,17,-21
-58,18,-20
-58,18,-21
-59,17,-21
-60,18,-22
-61,18,-20
-59,17,-19
-52,17,-14
-62,17,-19
-58,18,-19
-57,18,-18
-58,18,-18
-61,18,-19
-59,18,-20
-57,18,-20
-58,17,-20
-58,17,-20
-58,18,-20
-58,17,-20
-59,18,-20
-59,18,-20
-59,18,-20
-60,18,-20
-60,18,-20
-61,18,-19
-61,18,-19
-57,18,-15
-58,17,-13
-56,18,-14
-58,18,-14
-58,18,-15
-61,19,-17
-59,19,-17
-58,18,-17
-58,19,-17
-59,18,-17
-60,18,-18
-60,18,-18
-59,18,-17
-59,18,-18
-59,18,-18
-59,18,-17
-60,18,-18
-61,18,-18
-60,18,-18
-59,18,-16
-60,18,-15
-55,17,-11
-60,19,-14
-60,19,-15
-59,19,-14
-61,19,-16
-60,19,-15
-58,19,-15
-59,19,-15
-59,19,-16
-59,19,-16
-59,18,-16
-59,19,-16
-60,19,-16
-59,19,-16
-59,19,-16
-59,19,-16
-59,19,-16
-59,18,-16
-59,19,-16
-59,18,-17
-59,18,-17
-59,18,-16
-59,18,-16
-59,18,-17
-58,18,-17
-57,18,-18
-55,18,-21
-59,17,-19
-55,17,-16
-59,18,-22
-57,21,-22
-58,22,-25
-55,22,-25
-55,20,-25
-57,20,-25
-58,20,-25
-56,17,-31
-52,18,-32
-51,17,-29
-51,19,-27
-52,20,-36
-52,20,-36
-51,19,-33
-50,19,-31
-55,20,-37
-56,20,-36
-49,22,-33
-45,22,-34
-50,22,-39
-55,22,-38
-50,21,-30
-51,22,-30
-52,21,-28
-49,22,-28
-50,23,-31
-53,22,-30
-52,22,-27
-52,23,-28
-54,23,-28
-51,22,-24
-54,24,-27
-54,23,-27
-59,24,-27
-53,23,-22
-57,25,-25
-58,25,-26
-58,23,-21
-55,23,-20
-56,24,-19
-55,24,-17
-56,24,-17
-53,24,-17
-56,24,-18
-56,24,-19
-56,24,-18
-55,24,-18
-57,25,-19
-57,24,-18
-55,25,-18
-57,25,-19
-57,25,-18
-57,25,-18
-57,25,-18
-57,24,-18
-57,24,-18
-56,24,-18
-57,25,-19
-56,25,-19
-56,24,-17
-57,24,-18
-56,24,-19
-56,24,-19
-57,24,-18
-57,24,-19
-56,24,-19
-56,24,-18
-56,24,-18
-57,24,-19
-56,24,-19
-57,24,-19
-58,24,-19
-56,23,-18
-57,23,-19
-56,23,-19
-56,23,-19
-57,23,-18
-57,23,-19
-58,23,-20
-57,23,-19
-58,23,-18
-56,23,-18
-56,24,-20
-55,23,-20
-58,23,-20
-55,21,-15
-59,22,-18
-61,23,-19
-58,22,-16
-56,21,-18
-56,24,-24
-51,23,-20
-55,22,-19
-56,22,-17
-54,22,-18
-55,22,-19
-57,22,-20
-58,22,-21
-57,22,-22
-56,22,-21
-56,22,-20
-56,22,-21
-58,22,-21
-55,22,-20
-57,22,-21
-58,22,-23
-54,22,-20
-56,22,-22
-55,22,-23
-57,21,-21
-57,21,-20
-56,22,-21
-56,21,-21
-56,21,-22
-57,22,-23
-56,23,-21
-58,23,-25
-57,23,-24
-55,21,-19
-55,20,-17
-53,19,-18
-58,21,-18
-59,22,-25
-56,22,-20
-58,22,-22
-55,23,-21
-54,22,-20
-57,21,-20
-61,22,-24
-57,22,-23
-57,22,-20
-57,21,-20
-55,22,-21
-57,22,-22
-56,23,-22
-56,23,-23
-59,25,-28
-56,21,-16
-52,21,-15
-54,19,-13
-57,19,-12
-59,20,-12
-57,24,-20
-58,24,-20
-57,21,-15
-62,24,-26
-51,25,-23
-59,22,-19
-55,20,-14
-58,25,-22
-55,17,-12
-62,19,-11
-62,22,-14
-57,23,-15
-58,23,-17
-57,23,-18
-57,23,-18
-57,23,-17
-58,23,-16
-59,23,-17
-56,23,-16
-57,22,-16
-59,23,-18
-56,23,-18
-56,23,-17
-58,23,-18
-59,23,-18
-58,26,-19
-58,26,-24
-56,19,-15
-57,25,-17
-57,24,-19
-57,23,-7
-63,21,-13
-54,24,-13
-58,24,-17
-59,24,-17
-58,23,-15
-56,24,-15
-58,23,-18
-58,23,-18
-57,23,-18
-57,23,-16
-58,23,-17
-58,24,-19
-57,24,-18
-57,23,-16
-59,23,-18
-57,22,-16
-57,24,-18
-58,24,-18
-57,24,-17
-57,23,-17
-55,23,-17
-57,20,-17
-60,22,-17
-56,22,-17
-58,23,-19
-58,23,-16
-58,24,-16
-56,24,-17
-56,23,-17
-57,23,-17
-58,23,-17
-58,23,-17
-58,24,-18
-57,23,-17
-58,23,-17
-56,23,-17
-56,23,-16
-58,24,-18
-57,23,-18
-57,23,-18
-57,23,-18
-57,23,-18
-56,23,-17
-57,24,-18
-57,23,-19
-57,23,-19
-57,23,-17
-57,23,-18
-57,23,-19
-56,24,-18
-56,24,-18
-56,25,-19
-57,25,-19
-57,23,-19
-55,22,-18
-54,22,-18
-57,22,-19
-58,21,-20
-60,21,-20
-61,21,-20
-58,21,-18
-58,21,-18
-58,21,-18
-58,21,-19
-58,21,-20
-58,21,-20
-58,21,-20
-57,19,-18
-57,19,-17
-59,19,-18
-58,18,-18
-57,18,-18
-57,19,-19
-57,19,-18
-58,20,-17
-58,21,-17
-58,21,-17
-59,23,-19
-59,23,-20
-58,24,-20
-58,23,-20
-56,24,-20
-56,23,-20
-56,23,-20
-55,23,-19
-55,22,-19
-56,22,-20
-57,23,-20
-57,24,-19
-57,25,-20
-57,24,-19
-56,24,-19
-56,24,-19
-56,23,-19
-55,24,-19
-57,23,-19
-57,22,-18
-57,23,-18
-56,22,-19
-56,23,-19
-57,23,-19
-57,23,-19
-57,24,-18
-59,24,-18
-58,22,-18
-57,22,-18
-56,23,-19
-55,24,-19
-56,23,-19
-56,24,-20
-55,24,-19
-56,24,-19
-57,24,-19
-56,24,-19
-57,24,-20
-57,24,-19
-58,23,-20
-58,24,-20
-58,23,-20
-57,22,-20
-57,22,-19
-56,23,-20
-54,24,-17
-51,24,-15
-56,24,-18
-55,25,-19
-57,24,-18
-57,25,-20
-57,25,-19
-57,24,-19
-57,24,-19
-57,25,-19
-57,25,-20
-57,24,-20
-55,24,-19
-55,24,-19
-56,24,-19
-57,24,-20
-58,24,-20
-57,24,-20
-56,24,-20
-57,23,-21
-56,24,-20
-56,24,-19
